acc.x,acc.y,acc.z,gyro.x,gyro.y,gyro.z
-0.136688232421875,0.152618408203125,0.09832763671875,-0.014892578125,-0.006500244140625,0.00909423828125
-0.1334075927734375,0.1530303955078125,0.0888671875,-0.012603759765625,-0.0077056884765625,0.0078125
-0.13116455078125,0.1392822265625,0.084381103515625,-0.00848388671875,-0.004791259765625,0.006195068359375
-0.1670684814453125,0.1439056396484375,0.11492919921875,-0.0090484619140625,-0.005279541015625,0.005401611328125
-0.13861083984375,0.111480712890625,0.100494384765625,-0.00982666015625,-0.002227783203125,0.005462646484375
-0.13311767578125,0.115936279296875,0.0726776123046875,-0.006500244140625,0.0022430419921875,0.0068511962890625
-0.142425537109375,0.13317871093749997,0.067779541015625,-0.0017089843749999985,0.0012512207031249967,0.0043640136718749965
-0.12951660156249997,0.1142730712890625,0.061004638671874986,-0.0023498535156250035,0.0005798339843750018,-1.2468324983583301e-18
-0.141387939453125,0.10638427734375,0.1351318359375,-0.015106201171875,-0.00140380859375,0.002960205078125
-0.1311492919921875,0.07879638671875,0.164398193359375,-0.020050048828125,0.0051727294921875,0.006500244140625
-0.20794677734375,0.080810546875,0.083709716796875,-0.010040283203125,0.001129150390625,0.00592041015625
-0.1769561767578125,0.2971343994140625,-0.1027069091796875,-0.0035552978515625,-0.0206756591796875,-0.011566162109375
-0.12493896484375018,0.2730712890624997,0.06964111328124983,-7.233661369551719e-17,-0.012634277343749941,-0.020233154296874917
-0.2878875732421875,0.3993988037109375,0.2600555419921875,-0.05938720703125,0.0032196044921875,-0.0028076171875000004
-0.715179443359375,0.540313720703125,0.385589599609375,0.081268310546875,0.02703857421875,0.02532958984375
-0.13201904296875,-0.014892578125,-0.1776580810546875,0.0223846435546875,0.0578155517578125,-0.0012359619140625
-0.2047119140625,0.077117919921875,0.0615234375,-0.00604248046875,-0.015960693359375,0.006683349609375
-0.11320495605468754,0.2124023437500003,0.0598754882812499,-0.02314758300781257,-0.01678466796874999,0.012573242187500005
-0.123046875,0.118865966796875,0.1854248046875,-0.0301513671875,-0.02825927734375,0.007110595703125
-0.183685302734375,0.10379028320312533,0.15655517578124997,-0.0218963623046875,-0.006698608398437479,0.016510009765625007

-0.141387939453125,0.10638427734375,0.1351318359375,-0.015106201171875,-0.00140380859375,0.002960205078125
-0.1311492919921875,0.07879638671875,0.164398193359375,-0.020050048828125,0.0051727294921875,0.006500244140625
-0.20794677734375,0.080810546875,0.083709716796875,-0.010040283203125,0.001129150390625,0.00592041015625
-0.1769561767578125,0.2971343994140625,-0.1027069091796875,-0.0035552978515625,-0.0206756591796875,-0.011566162109375
-0.12493896484375018,0.2730712890624997,0.06964111328124983,-7.233661369551719e-17,-0.012634277343749941,-0.020233154296874917
-0.2878875732421875,0.3993988037109375,0.2600555419921875,-0.05938720703125,0.0032196044921875,-0.0028076171875000004
-0.715179443359375,0.540313720703125,0.385589599609375,0.081268310546875,0.02703857421875,0.02532958984375
-0.13201904296875,-0.014892578125,-0.1776580810546875,0.0223846435546875,0.0578155517578125,-0.0012359619140625
-0.2047119140625,0.077117919921875,0.0615234375,-0.00604248046875,-0.015960693359375,0.006683349609375
-0.11320495605468754,0.2124023437500003,0.0598754882812499,-0.02314758300781257,-0.01678466796874999,0.012573242187500005
-0.123046875,0.118865966796875,0.1854248046875,-0.0301513671875,-0.02825927734375,0.007110595703125
-0.183685302734375,0.10379028320312533,0.15655517578124997,-0.0218963623046875,-0.006698608398437479,0.016510009765625007
-0.078094482421875,0.31121826171875,-0.0521240234375,-0.03240966796875,0.002593994140625,0.011810302734375
-0.1206512451171875,0.175994873046875,0.060302734375,-0.0128173828125,0.0208740234375,0.0076904296875
-0.08660888671875,0.225250244140625,0.058990478515625,0.013519287109375,0.011688232421875,0.00738525390625
-0.1005096435546882,0.20091247558593722,0.049072265624999625,0.011032104492187613,0.018112182617187427,0.008407592773437505
-0.18789672851562453,0.12796020507812536,0.07254028320312493,0.005615234374999971,0.030242919921875035,0.009643554687500014
-0.10748291015625,0.2051849365234375,0.07904052734375,0.0082244873046875,0.038543701171875,0.013580322265625
-0.07159423828125,0.277984619140625,0.13311767578125,0.013031005859375,0.0439453125,0.004730224609375
-0.0610198974609375,0.2413177490234375,0.1121673583984375,0.0375823974609375,0.03497314453125,-0.003021240234375

-0.2047119140625,0.077117919921875,0.0615234375,-0.00604248046875,-0.015960693359375,0.006683349609375
-0.11320495605468754,0.2124023437500003,0.0598754882812499,-0.02314758300781257,-0.01678466796874999,0.012573242187500005
-0.123046875,0.118865966796875,0.1854248046875,-0.0301513671875,-0.02825927734375,0.007110595703125
-0.183685302734375,0.10379028320312533,0.15655517578124997,-0.0218963623046875,-0.006698608398437479,0.016510009765625007
-0.078094482421875,0.31121826171875,-0.0521240234375,-0.03240966796875,0.002593994140625,0.011810302734375
-0.1206512451171875,0.175994873046875,0.060302734375,-0.0128173828125,0.0208740234375,0.0076904296875
-0.08660888671875,0.225250244140625,0.058990478515625,0.013519287109375,0.011688232421875,0.00738525390625
-0.1005096435546882,0.20091247558593722,0.049072265624999625,0.011032104492187613,0.018112182617187427,0.008407592773437505
-0.18789672851562453,0.12796020507812536,0.07254028320312493,0.005615234374999971,0.030242919921875035,0.009643554687500014
-0.10748291015625,0.2051849365234375,0.07904052734375,0.0082244873046875,0.038543701171875,0.013580322265625
-0.07159423828125,0.277984619140625,0.13311767578125,0.013031005859375,0.0439453125,0.004730224609375
-0.0610198974609375,0.2413177490234375,0.1121673583984375,0.0375823974609375,0.03497314453125,-0.003021240234375
-0.2899169921875,0.263885498046875,0.173980712890625,0.05810546875,0.046234130859375,-0.0118408203125
-0.3406829833984374,0.2071228027343744,0.1251220703125,0.05323791503906249,0.05636596679687503,-0.021606445312500028
-0.295989990234375,0.10943603515625,0.111297607421875,0.0440673828125,0.058074951171875,-0.027191162109375
-0.2308502197265625,0.1145477294921875,0.1439361572265625,0.024322509765625,0.04632568359375,-0.0262298583984375
-0.091278076171875,0.16436767578125,0.10687255859375,-0.001922607421875,-0.002716064453125,-0.01214599609375
-0.087799072265625,0.0641021728515625,0.0894927978515625,0.00323486328125,-0.0195465087890625,-0.0069732666015625
-0.09149169921875,-0.030517578125000108,0.0639343261718751,-0.0035705566406251305,-0.02236938476562494,0.006744384765625106
-0.06622314453125,-0.0261383056640625,0.1196441650390625,-0.035797119140625,-0.017608642578125,0.0225982666015625

-0.18789672851562453,0.12796020507812536,0.07254028320312493,0.005615234374999971,0.030242919921875035,0.009643554687500014
-0.10748291015625,0.2051849365234375,0.07904052734375,0.0082244873046875,0.038543701171875,0.013580322265625
-0.07159423828125,0.277984619140625,0.13311767578125,0.013031005859375,0.0439453125,0.004730224609375
-0.0610198974609375,0.2413177490234375,0.1121673583984375,0.0375823974609375,0.03497314453125,-0.003021240234375
-0.2899169921875,0.263885498046875,0.173980712890625,0.05810546875,0.046234130859375,-0.0118408203125
-0.3406829833984374,0.2071228027343744,0.1251220703125,0.05323791503906249,0.05636596679687503,-0.021606445312500028
-0.295989990234375,0.10943603515625,0.111297607421875,0.0440673828125,0.058074951171875,-0.027191162109375
-0.2308502197265625,0.1145477294921875,0.1439361572265625,0.024322509765625,0.04632568359375,-0.0262298583984375
-0.091278076171875,0.16436767578125,0.10687255859375,-0.001922607421875,-0.002716064453125,-0.01214599609375
-0.087799072265625,0.0641021728515625,0.0894927978515625,0.00323486328125,-0.0195465087890625,-0.0069732666015625
-0.09149169921875,-0.030517578125000108,0.0639343261718751,-0.0035705566406251305,-0.02236938476562494,0.006744384765625106
-0.06622314453125,-0.0261383056640625,0.1196441650390625,-0.035797119140625,-0.017608642578125,0.0225982666015625
-0.04901123046875,0.066558837890625,0.089874267578125,-0.046142578125,-0.02081298828125,0.022247314453125
-0.03143310546875,0.0853271484375,-4.57763671875e-05,-0.0430145263671875,-0.03033447265625,0.0235595703125
-0.073272705078125,0.137451171875,-0.024261474609375,-0.0350341796875,-0.04144287109375,0.0255126953125
-0.1190185546875002,0.2531127929687502,0.0330352783203128,-0.022384643554687434,-0.03399658203124992,0.02136230468749992
-0.121185302734375,0.174163818359375,0.15557861328125,-0.015533447265625,-0.007598876953125,0.000579833984375
-0.16058349609375017,0.17768859863281236,0.21849060058593772,-0.03005981445312509,0.007110595703124982,0.005294799804687468
-0.20672607421875,0.16912841796875,0.1585693359375,-0.048583984375,-0.0013427734375,-0.007965087890625
-0.21504211425781242,0.10850524902343797,0.09530639648437378,0.005569458007812527,-0.002517700195312508,-0.009582519531250031

-0.091278076171875,0.16436767578125,0.10687255859375,-0.001922607421875,-0.002716064453125,-0.01214599609375
-0.087799072265625,0.0641021728515625,0.0894927978515625,0.00323486328125,-0.0195465087890625,-0.0069732666015625
-0.09149169921875,-0.030517578125000108,0.0639343261718751,-0.0035705566406251305,-0.02236938476562494,0.006744384765625106
-0.06622314453125,-0.0261383056640625,0.1196441650390625,-0.035797119140625,-0.017608642578125,0.0225982666015625
-0.04901123046875,0.066558837890625,0.089874267578125,-0.046142578125,-0.02081298828125,0.022247314453125
-0.03143310546875,0.0853271484375,-4.57763671875e-05,-0.0430145263671875,-0.03033447265625,0.0235595703125
-0.073272705078125,0.137451171875,-0.024261474609375,-0.0350341796875,-0.04144287109375,0.0255126953125
-0.1190185546875002,0.2531127929687502,0.0330352783203128,-0.022384643554687434,-0.03399658203124992,0.02136230468749992
-0.121185302734375,0.174163818359375,0.15557861328125,-0.015533447265625,-0.007598876953125,0.000579833984375
-0.16058349609375017,0.17768859863281236,0.21849060058593772,-0.03005981445312509,0.007110595703124982,0.005294799804687468
-0.20672607421875,0.16912841796875,0.1585693359375,-0.048583984375,-0.0013427734375,-0.007965087890625
-0.21504211425781242,0.10850524902343797,0.09530639648437378,0.005569458007812527,-0.002517700195312508,-0.009582519531250031
-0.3115234375,0.115631103515625,0.2806396484375,-0.009979248046875,0.0113525390625,-0.004608154296875
-0.13313293457031172,0.30488586425781267,-0.10317993164062603,-0.03834533691406238,0.03184509277343758,-0.0024871826171874853
-0.226226806640625,0.353271484375,0.11083984375,-0.0347900390625,-0.00128173828125,-0.002777099609375
-0.03909301757812417,0.33575439453124983,-0.05728149414062522,-0.013778686523437444,-0.013885498046875328,-0.004852294921875081
-0.1126098632812525,0.09051513671875396,0.09564208984375053,-0.013153076171875581,-0.006622314453124945,0.011444091796875043
-0.15164184570312333,0.24835205078124845,0.05642700195312518,-0.034072875976562375,0.005661010742187545,0.007278442382812514
-0.119873046875,0.0972900390625,0.103668212890625,-0.0057373046875,0.010772705078125,0.0087890625
-0.11557006835937522,0.15307617187500025,0.08184814453124988,0.005142211914062479,0.00929260253906248,0.012985229492187542

-0.121185302734375,0.174163818359375,0.15557861328125,-0.015533447265625,-0.007598876953125,0.000579833984375
-0.16058349609375017,0.17768859863281236,0.21849060058593772,-0.03005981445312509,0.007110595703124982,0.005294799804687468
-0.20672607421875,0.16912841796875,0.1585693359375,-0.048583984375,-0.0013427734375,-0.007965087890625
-0.21504211425781242,0.10850524902343797,0.09530639648437378,0.005569458007812527,-0.002517700195312508,-0.009582519531250031
-0.3115234375,0.115631103515625,0.2806396484375,-0.009979248046875,0.0113525390625,-0.004608154296875
-0.13313293457031172,0.30488586425781267,-0.10317993164062603,-0.03834533691406238,0.03184509277343758,-0.0024871826171874853
-0.226226806640625,0.353271484375,0.11083984375,-0.0347900390625,-0.00128173828125,-0.002777099609375
-0.03909301757812417,0.33575439453124983,-0.05728149414062522,-0.013778686523437444,-0.013885498046875328,-0.004852294921875081
-0.1126098632812525,0.09051513671875396,0.09564208984375053,-0.013153076171875581,-0.006622314453124945,0.011444091796875043
-0.15164184570312333,0.24835205078124845,0.05642700195312518,-0.034072875976562375,0.005661010742187545,0.007278442382812514
-0.119873046875,0.0972900390625,0.103668212890625,-0.0057373046875,0.010772705078125,0.0087890625
-0.11557006835937522,0.15307617187500025,0.08184814453124988,0.005142211914062479,0.00929260253906248,0.012985229492187542
-0.209442138671875,0.1082763671875,0.081390380859375,0.001861572265625,-0.002716064453125,0.0234375
-0.1884918212890622,0.13710021972656267,0.04678344726562491,0.008087158203125071,0.006134033203125042,0.02355957031249994
-0.11700439453125,0.17767333984375,0.063873291015625,0.022308349609375,0.011505126953125,0.01513671875
-0.14996337890624978,0.13861083984375025,0.02276611328124945,0.02758789062500005,0.014785766601562538,0.0098419189453125
-0.131744384765625,0.05548095703125,0.06707763671875,0.013427734375,0.0538330078125,0.009857177734375
-0.037414550781249896,0.20018005371093753,0.12863159179687525,0.030990600585937524,0.04972839355468758,0.001251220703125013
-0.1317749023437513,0.1490478515625002,0.11148071289062587,0.04791259765625004,0.05853271484375002,0.0011596679687499688
-0.3019561767578135,0.271270751953126,0.17657470703124994,0.037857055664062396,0.06530761718750004,-0.004379272460937549

-0.1126098632812525,0.09051513671875396,0.09564208984375053,-0.013153076171875581,-0.006622314453124945,0.011444091796875043
-0.15164184570312333,0.24835205078124845,0.05642700195312518,-0.034072875976562375,0.005661010742187545,0.007278442382812514
-0.119873046875,0.0972900390625,0.103668212890625,-0.0057373046875,0.010772705078125,0.0087890625
-0.11557006835937522,0.15307617187500025,0.08184814453124988,0.005142211914062479,0.00929260253906248,0.012985229492187542
-0.209442138671875,0.1082763671875,0.081390380859375,0.001861572265625,-0.002716064453125,0.0234375
-0.1884918212890622,0.13710021972656267,0.04678344726562491,0.008087158203125071,0.006134033203125042,0.02355957031249994
-0.11700439453125,0.17767333984375,0.063873291015625,0.022308349609375,0.011505126953125,0.01513671875
-0.14996337890624978,0.13861083984375025,0.02276611328124945,0.02758789062500005,0.014785766601562538,0.0098419189453125
-0.131744384765625,0.05548095703125,0.06707763671875,0.013427734375,0.0538330078125,0.009857177734375
-0.037414550781249896,0.20018005371093753,0.12863159179687525,0.030990600585937524,0.04972839355468758,0.001251220703125013
-0.1317749023437513,0.1490478515625002,0.11148071289062587,0.04791259765625004,0.05853271484375002,0.0011596679687499688
-0.3019561767578135,0.271270751953126,0.17657470703124994,0.037857055664062396,0.06530761718750004,-0.004379272460937549
-0.345947265625,0.264801025390625,0.08038330078125,0.044830322265625,0.069610595703125,-0.013763427734375
-0.28491210937499983,0.15487670898437475,0.0815582275390627,0.04515075683593744,0.06475830078125,-0.019119262695312545
-0.200469970703125,0.13641357421875,0.12506103515625,0.030517578125,0.06060791015625,-0.02642822265625
-0.20671081542968792,0.15742492675781306,0.2549285888671882,0.018600463867187382,0.03623962402343742,-0.022705078124999986
-0.074371337890625,0.060394287109375,0.11407470703125,-0.008636474609375,-0.01275634765625,-0.012237548828125
-0.0859222412109375,0.007446289062500361,0.09640502929687479,-0.02360534667968748,-0.02723693847656251,0.003280639648437462
-0.07659912109375,-0.025665283203125,0.139312744140625,-0.04425048828125,-0.020538330078125,0.01336669921875
-0.06323242187499996,-0.03013610839843745,0.09159851074218682,-0.06767272949218747,-0.022750854492187538,0.026565551757812524

-0.131744384765625,0.05548095703125,0.06707763671875,0.013427734375,0.0538330078125,0.009857177734375
-0.037414550781249896,0.20018005371093753,0.12863159179687525,0.030990600585937524,0.04972839355468758,0.001251220703125013
-0.1317749023437513,0.1490478515625002,0.11148071289062587,0.04791259765625004,0.05853271484375002,0.0011596679687499688
-0.3019561767578135,0.271270751953126,0.17657470703124994,0.037857055664062396,0.06530761718750004,-0.004379272460937549
-0.345947265625,0.264801025390625,0.08038330078125,0.044830322265625,0.069610595703125,-0.013763427734375
-0.28491210937499983,0.15487670898437475,0.0815582275390627,0.04515075683593744,0.06475830078125,-0.019119262695312545
-0.200469970703125,0.13641357421875,0.12506103515625,0.030517578125,0.06060791015625,-0.02642822265625
-0.20671081542968792,0.15742492675781306,0.2549285888671882,0.018600463867187382,0.03623962402343742,-0.022705078124999986
-0.074371337890625,0.060394287109375,0.11407470703125,-0.008636474609375,-0.01275634765625,-0.012237548828125
-0.0859222412109375,0.007446289062500361,0.09640502929687479,-0.02360534667968748,-0.02723693847656251,0.003280639648437462
-0.07659912109375,-0.025665283203125,0.139312744140625,-0.04425048828125,-0.020538330078125,0.01336669921875
-0.06323242187499996,-0.03013610839843745,0.09159851074218682,-0.06767272949218747,-0.022750854492187538,0.026565551757812524
-0.04827880859375028,0.014892578125002817,-0.03601074218750018,-0.05224609374999952,-0.04232788085937511,0.027252197265625
-0.06756591796875017,0.21887207031250053,-0.005935668945312184,-0.009582519531249849,-0.05328369140625004,0.02743530273437499
-0.134613037109375,0.287841796875,0.072967529296875,0.01275634765625,-0.0562744140625,0.018524169921875
-0.14950561523437525,0.205856323242187,0.09158325195312508,0.010299682617187462,-0.044128417968749924,0.0048522949218749375
-0.089508056640625,0.165924072265625,0.154998779296875,-0.042388916015625,-0.009613037109375,-0.012542724609375
-0.11453247070312508,0.15489196777343744,0.18350219726562492,-0.0167083740234374,-0.01242065429687502,-0.007431030273437492
-0.171783447265625,0.0762939453125,0.215118408203125,-0.01531982421875,-0.016448974609375,-0.0089111328125
-0.2594604492187492,0.22178649902343678,0.14913940429687578,-0.014892578125000163,-0.01736450195312498,-0.005142211914062508

-0.074371337890625,0.060394287109375,0.11407470703125,-0.008636474609375,-0.01275634765625,-0.012237548828125
-0.0859222412109375,0.007446289062500361,0.09640502929687479,-0.02360534667968748,-0.02723693847656251,0.003280639648437462
-0.07659912109375,-0.025665283203125,0.139312744140625,-0.04425048828125,-0.020538330078125,0.01336669921875
-0.06323242187499996,-0.03013610839843745,0.09159851074218682,-0.06767272949218747,-0.022750854492187538,0.026565551757812524
-0.04827880859375028,0.014892578125002817,-0.03601074218750018,-0.05224609374999952,-0.04232788085937511,0.027252197265625
-0.06756591796875017,0.21887207031250053,-0.005935668945312184,-0.009582519531249849,-0.05328369140625004,0.02743530273437499
-0.134613037109375,0.287841796875,0.072967529296875,0.01275634765625,-0.0562744140625,0.018524169921875
-0.14950561523437525,0.205856323242187,0.09158325195312508,0.010299682617187462,-0.044128417968749924,0.0048522949218749375
-0.089508056640625,0.165924072265625,0.154998779296875,-0.042388916015625,-0.009613037109375,-0.012542724609375
-0.11453247070312508,0.15489196777343744,0.18350219726562492,-0.0167083740234374,-0.01242065429687502,-0.007431030273437492
-0.171783447265625,0.0762939453125,0.215118408203125,-0.01531982421875,-0.016448974609375,-0.0089111328125
-0.2594604492187492,0.22178649902343678,0.14913940429687578,-0.014892578125000163,-0.01736450195312498,-0.005142211914062508
-0.4296875,0.281219482421875,-0.060577392578125,0.019622802734375,-0.039459228515625,-0.00634765625
-0.10554504394531161,0.2274322509765633,0.0417022705078132,0.03317260742187493,-0.020629882812499736,-0.008728027343749997
-0.33142089843749534,0.23080444335937675,0.06655883789062256,-0.011352539062500413,0.032989501953125305,0.009033203124999983
0.03228759765625053,0.30570983886718706,-0.04054260253906153,-0.03453063964843748,0.03952026367187488,-0.004119873046875068
-0.125335693359375,0.17767333984375,-0.00238037109375,-0.029693603515625,-0.012847900390625,0.00286865234375
-0.15742492675781283,0.12309265136718785,0.08209228515624947,-0.024261474609374785,-0.011520385742187873,0.011871337890624884
-0.18246459960937644,0.134429931640624,0.061340332031250146,-0.026458740234374802,0.0019226074218749987,0.014160156250000104
-0.21464538574218767,0.058502197265624514,0.1080780029296885,-0.007324218749999855,-0.005416870117187644,0.021331787109375062

-0.089508056640625,0.165924072265625,0.154998779296875,-0.042388916015625,-0.009613037109375,-0.012542724609375
-0.11453247070312508,0.15489196777343744,0.18350219726562492,-0.0167083740234374,-0.01242065429687502,-0.007431030273437492
-0.171783447265625,0.0762939453125,0.215118408203125,-0.01531982421875,-0.016448974609375,-0.0089111328125
-0.2594604492187492,0.22178649902343678,0.14913940429687578,-0.014892578125000163,-0.01736450195312498,-0.005142211914062508
-0.4296875,0.281219482421875,-0.060577392578125,0.019622802734375,-0.039459228515625,-0.00634765625
-0.10554504394531161,0.2274322509765633,0.0417022705078132,0.03317260742187493,-0.020629882812499736,-0.008728027343749997
-0.33142089843749534,0.23080444335937675,0.06655883789062256,-0.011352539062500413,0.032989501953125305,0.009033203124999983
0.03228759765625053,0.30570983886718706,-0.04054260253906153,-0.03453063964843748,0.03952026367187488,-0.004119873046875068
-0.125335693359375,0.17767333984375,-0.00238037109375,-0.029693603515625,-0.012847900390625,0.00286865234375
-0.15742492675781283,0.12309265136718785,0.08209228515624947,-0.024261474609374785,-0.011520385742187873,0.011871337890624884
-0.18246459960937644,0.134429931640624,0.061340332031250146,-0.026458740234374802,0.0019226074218749987,0.014160156250000104
-0.21464538574218767,0.058502197265624514,0.1080780029296885,-0.007324218749999855,-0.005416870117187644,0.021331787109375062
-0.14508056640625,0.064300537109375,0.1075439453125,0.000274658203125,0.01324462890625,0.0244140625
-0.091552734375,0.2261199951171875,0.0291748046875,-0.0078582763671875,0.029998779296875,0.0224456787109375
-0.111907958984375,0.246917724609375,-0.004180908203125,-0.0062255859375,0.036407470703125,0.015472412109375
-0.17570495605468636,0.10292053222656405,0.19462585449218528,0.004287719726563239,0.02981567382812522,0.007797241210937487
-0.102203369140625,0.1092529296875,0.146331787109375,0.047332763671875,0.077484130859375,0.00048828125
-0.280120849609375,0.1746978759765625,0.1932830810546875,0.048553466796875,0.08392333984375,-0.005416870117187499
-0.316650390625,0.182159423828125,0.1146240234375,0.055938720703125,0.059356689453125,-0.003204345703125
-0.3118286132812504,0.17979431152343714,0.21614074707031258,0.026550292968750305,0.06144714355468749,-0.00534057617187499

-0.125335693359375,0.17767333984375,-0.00238037109375,-0.029693603515625,-0.012847900390625,0.00286865234375
-0.15742492675781283,0.12309265136718785,0.08209228515624947,-0.024261474609374785,-0.011520385742187873,0.011871337890624884
-0.18246459960937644,0.134429931640624,0.061340332031250146,-0.026458740234374802,0.0019226074218749987,0.014160156250000104
-0.21464538574218767,0.058502197265624514,0.1080780029296885,-0.007324218749999855,-0.005416870117187644,0.021331787109375062
-0.14508056640625,0.064300537109375,0.1075439453125,0.000274658203125,0.01324462890625,0.0244140625
-0.091552734375,0.2261199951171875,0.0291748046875,-0.0078582763671875,0.029998779296875,0.0224456787109375
-0.111907958984375,0.246917724609375,-0.004180908203125,-0.0062255859375,0.036407470703125,0.015472412109375
-0.17570495605468636,0.10292053222656405,0.19462585449218528,0.004287719726563239,0.02981567382812522,0.007797241210937487
-0.102203369140625,0.1092529296875,0.146331787109375,0.047332763671875,0.077484130859375,0.00048828125
-0.280120849609375,0.1746978759765625,0.1932830810546875,0.048553466796875,0.08392333984375,-0.005416870117187499
-0.316650390625,0.182159423828125,0.1146240234375,0.055938720703125,0.059356689453125,-0.003204345703125
-0.3118286132812504,0.17979431152343714,0.21614074707031258,0.026550292968750305,0.06144714355468749,-0.00534057617187499
-0.1661376953125,0.183868408203125,0.21466064453125,0.0001220703125,0.026153564453125,-0.013153076171875
-0.1288757324218746,0.10458374023437474,0.14712524414062453,-0.014404296875000038,0.004913330078124807,-0.009902954101562467
-0.107269287109375,0.06878662109375,0.082305908203125,-0.0228271484375,-0.022247314453125,-0.002716064453125
-0.09332275390625,0.0237274169921875,0.059783935546875,-0.0390777587890625,-0.03173828125,0.0043792724609375
-0.10491943359375253,0.14160156250000355,0.03649902343750019,-0.025512695312499712,-0.027526855468750267,0.019104003906249934
-0.18743896484375028,0.30412292480468744,0.10603332519531358,-0.006896972656249706,-0.03468322753906255,0.0007781982421870108
-0.13726806640625,0.08001708984375,0.1573486328125,-0.020538330078125,-0.03521728515625,-0.027008056640625
-0.1894683837890625,0.0492095947265625,0.0717620849609375,-0.0480194091796875,-0.0139617919921875,-0.0098724365234375

-0.102203369140625,0.1092529296875,0.146331787109375,0.047332763671875,0.077484130859375,0.00048828125
-0.280120849609375,0.1746978759765625,0.1932830810546875,0.048553466796875,0.08392333984375,-0.005416870117187499
-0.316650390625,0.182159423828125,0.1146240234375,0.055938720703125,0.059356689453125,-0.003204345703125
-0.3118286132812504,0.17979431152343714,0.21614074707031258,0.026550292968750305,0.06144714355468749,-0.00534057617187499
-0.1661376953125,0.183868408203125,0.21466064453125,0.0001220703125,0.026153564453125,-0.013153076171875
-0.1288757324218746,0.10458374023437474,0.14712524414062453,-0.014404296875000038,0.004913330078124807,-0.009902954101562467
-0.107269287109375,0.06878662109375,0.082305908203125,-0.0228271484375,-0.022247314453125,-0.002716064453125
-0.09332275390625,0.0237274169921875,0.059783935546875,-0.0390777587890625,-0.03173828125,0.0043792724609375
-0.10491943359375253,0.14160156250000355,0.03649902343750019,-0.025512695312499712,-0.027526855468750267,0.019104003906249934
-0.18743896484375028,0.30412292480468744,0.10603332519531358,-0.006896972656249706,-0.03468322753906255,0.0007781982421870108
-0.13726806640625,0.08001708984375,0.1573486328125,-0.020538330078125,-0.03521728515625,-0.027008056640625
-0.1894683837890625,0.0492095947265625,0.0717620849609375,-0.0480194091796875,-0.0139617919921875,-0.0098724365234375
-0.183319091796875,0.28369140625,0.170684814453125,-0.073089599609375,-0.00213623046875,0.002044677734375
-0.3003845214843761,0.27880859374999956,0.22865295410156283,-0.022842407226562146,-0.020095825195312715,-0.01399230957031264
-0.133941650390625,0.218902587890625,0.014801025390625,0.0103759765625,-0.021881103515625,-0.02264404296875
-0.4010925292968702,0.21612548828125172,0.08190917968749842,-0.024032592773438145,0.029983520507813492,0.004150390625000468
-0.194183349609375,0.168365478515625,-0.046722412109375,-0.010345458984375,0.002044677734375,0.00457763671875
-0.178863525390625,0.1173553466796875,-0.0258331298828125,-0.01318359375,-0.0122833251953125,-0.0049591064453125
-0.24414062499999964,0.07135009765625101,0.07751464843750108,-0.0130920410156258,-0.014648437499999105,0.0028991699218754567
-0.1749877929687507,0.1445465087890608,0.08830261230468776,-0.030136108398437375,0.01737976074218745,0.019821166992187472

-0.10491943359375253,0.14160156250000355,0.03649902343750019,-0.025512695312499712,-0.027526855468750267,0.019104003906249934
-0.18743896484375028,0.30412292480468744,0.10603332519531358,-0.006896972656249706,-0.03468322753906255,0.0007781982421870108
-0.13726806640625,0.08001708984375,0.1573486328125,-0.020538330078125,-0.03521728515625,-0.027008056640625
-0.1894683837890625,0.0492095947265625,0.0717620849609375,-0.0480194091796875,-0.0139617919921875,-0.0098724365234375
-0.183319091796875,0.28369140625,0.170684814453125,-0.073089599609375,-0.00213623046875,0.002044677734375
-0.3003845214843761,0.27880859374999956,0.22865295410156283,-0.022842407226562146,-0.020095825195312715,-0.01399230957031264
-0.133941650390625,0.218902587890625,0.014801025390625,0.0103759765625,-0.021881103515625,-0.02264404296875
-0.4010925292968702,0.21612548828125172,0.08190917968749842,-0.024032592773438145,0.029983520507813492,0.004150390625000468
-0.194183349609375,0.168365478515625,-0.046722412109375,-0.010345458984375,0.002044677734375,0.00457763671875
-0.178863525390625,0.1173553466796875,-0.0258331298828125,-0.01318359375,-0.0122833251953125,-0.0049591064453125
-0.24414062499999964,0.07135009765625101,0.07751464843750108,-0.0130920410156258,-0.014648437499999105,0.0028991699218754567
-0.1749877929687507,0.1445465087890608,0.08830261230468776,-0.030136108398437375,0.01737976074218745,0.019821166992187472
-0.174102783203125,0.058929443359375,0.116302490234375,-0.012420654296875,0.008941650390625,0.018707275390625
-0.137664794921875,0.151763916015625,0.0632171630859375,-0.020843505859375,0.0368499755859375,0.02557373046875
-0.119354248046875,0.174713134765625,0.111083984375,-0.0345458984375,0.06805419921875,0.020355224609375
-0.12942504882812558,0.1458892822265596,0.30490112304687333,-0.024826049804686987,0.09790039062500018,0.006103515624999908
-0.10345458984375,0.109893798828125,0.093048095703125,0.0216064453125,0.049896240234375,-0.00714111328125
-0.3053894042968793,0.29855346679687844,0.13946533203125014,0.01704406738281241,0.04629516601562498,-0.008911132812500028
-0.350799560546875,0.276763916015625,0.149566650390625,0.0201416015625,0.0572509765625,-0.014923095703125
-0.3155364990234375,0.132843017578125,0.195159912109375,0.017364501953125,0.051971435546875,-0.0226593017578125

-0.194183349609375,0.168365478515625,-0.046722412109375,-0.010345458984375,0.002044677734375,0.00457763671875
-0.178863525390625,0.1173553466796875,-0.0258331298828125,-0.01318359375,-0.0122833251953125,-0.0049591064453125
-0.24414062499999964,0.07135009765625101,0.07751464843750108,-0.0130920410156258,-0.014648437499999105,0.0028991699218754567
-0.1749877929687507,0.1445465087890608,0.08830261230468776,-0.030136108398437375,0.01737976074218745,0.019821166992187472
-0.174102783203125,0.058929443359375,0.116302490234375,-0.012420654296875,0.008941650390625,0.018707275390625
-0.137664794921875,0.151763916015625,0.0632171630859375,-0.020843505859375,0.0368499755859375,0.02557373046875
-0.119354248046875,0.174713134765625,0.111083984375,-0.0345458984375,0.06805419921875,0.020355224609375
-0.12942504882812558,0.1458892822265596,0.30490112304687333,-0.024826049804686987,0.09790039062500018,0.006103515624999908
-0.10345458984375,0.109893798828125,0.093048095703125,0.0216064453125,0.049896240234375,-0.00714111328125
-0.3053894042968793,0.29855346679687844,0.13946533203125014,0.01704406738281241,0.04629516601562498,-0.008911132812500028
-0.350799560546875,0.276763916015625,0.149566650390625,0.0201416015625,0.0572509765625,-0.014923095703125
-0.3155364990234375,0.132843017578125,0.195159912109375,0.017364501953125,0.051971435546875,-0.0226593017578125
-0.27651977539062517,0.13275146484375153,0.21029663085937583,0.012786865234374866,0.031677246093749646,-0.02301025390624984
-0.2625427246093746,0.23490905761718825,0.24824523925781253,0.002136230468749912,0.014846801757812365,-0.014541625976562444
-0.18023681640625,0.136322021484375,0.1463623046875,0.004180908203125,0.006134033203125,-0.01019287109375
-0.1564178466796875,0.058135986328125,0.138824462890625,-0.0041046142578125,0.0076141357421875,0.0
-0.07720947265625,0.067291259765625,0.089385986328125,-0.02569580078125,-0.00506591796875,0.032012939453125
-0.15083312988281283,0.06869506835937458,0.08609008789062528,-0.015960693359374976,-0.013366699218750002,0.029296875
-0.154541015625,0.098724365234375,0.130096435546875,-0.017486572265625,-0.01055908203125,0.03082275390625
-0.122802734375,0.1721343994140625,0.1674346923828125,-0.046478271484375,-0.0018768310546875,0.0357513427734375

-0.10345458984375,0.109893798828125,0.093048095703125,0.0216064453125,0.049896240234375,-0.00714111328125
-0.3053894042968793,0.29855346679687844,0.13946533203125014,0.01704406738281241,0.04629516601562498,-0.008911132812500028
-0.350799560546875,0.276763916015625,0.149566650390625,0.0201416015625,0.0572509765625,-0.014923095703125
-0.3155364990234375,0.132843017578125,0.195159912109375,0.017364501953125,0.051971435546875,-0.0226593017578125
-0.27651977539062517,0.13275146484375153,0.21029663085937583,0.012786865234374866,0.031677246093749646,-0.02301025390624984
-0.2625427246093746,0.23490905761718825,0.24824523925781253,0.002136230468749912,0.014846801757812365,-0.014541625976562444
-0.18023681640625,0.136322021484375,0.1463623046875,0.004180908203125,0.006134033203125,-0.01019287109375
-0.1564178466796875,0.058135986328125,0.138824462890625,-0.0041046142578125,0.0076141357421875,0.0
-0.07720947265625,0.067291259765625,0.089385986328125,-0.02569580078125,-0.00506591796875,0.032012939453125
-0.15083312988281283,0.06869506835937458,0.08609008789062528,-0.015960693359374976,-0.013366699218750002,0.029296875
-0.154541015625,0.098724365234375,0.130096435546875,-0.017486572265625,-0.01055908203125,0.03082275390625
-0.122802734375,0.1721343994140625,0.1674346923828125,-0.046478271484375,-0.0018768310546875,0.0357513427734375
-0.121246337890625,0.164520263671875,0.173980712890625,-0.055908203125,0.003143310546875,0.0338134765625
-0.16156005859375,0.1359405517578125,0.14129638671875,-0.051025390625,0.001312255859375,0.0238800048828125
-0.13787841796875008,0.1351928710937502,0.14514160156250078,-0.04556274414062492,-0.0046081542968751665,0.018920898437499903
-0.13471984863281247,0.15640258789062564,0.20338439941406344,-0.04809570312500006,-0.01292419433593751,0.015304565429687523
-0.2025146484375,0.151885986328125,0.037933349609375,0.00189208984375,-0.011474609375,0.012725830078125
-0.431854248046875,0.282073974609375,0.0266265869140625,0.0215606689453125,-0.0224761962890625,0.0066680908203125
-0.24896240234375,0.056640625,0.084320068359375,-0.015106201171875,0.01007080078125,0.004302978515625
-0.1330108642578135,0.06651306152343991,-0.07984924316406297,-0.056228637695311806,0.03312683105468725,0.016326904296875073

-0.07720947265625,0.067291259765625,0.089385986328125,-0.02569580078125,-0.00506591796875,0.032012939453125
-0.15083312988281283,0.06869506835937458,0.08609008789062528,-0.015960693359374976,-0.013366699218750002,0.029296875
-0.154541015625,0.098724365234375,0.130096435546875,-0.017486572265625,-0.01055908203125,0.03082275390625
-0.122802734375,0.1721343994140625,0.1674346923828125,-0.046478271484375,-0.0018768310546875,0.0357513427734375
-0.121246337890625,0.164520263671875,0.173980712890625,-0.055908203125,0.003143310546875,0.0338134765625
-0.16156005859375,0.1359405517578125,0.14129638671875,-0.051025390625,0.001312255859375,0.0238800048828125
-0.13787841796875008,0.1351928710937502,0.14514160156250078,-0.04556274414062492,-0.0046081542968751665,0.018920898437499903
-0.13471984863281247,0.15640258789062564,0.20338439941406344,-0.04809570312500006,-0.01292419433593751,0.015304565429687523
-0.2025146484375,0.151885986328125,0.037933349609375,0.00189208984375,-0.011474609375,0.012725830078125
-0.431854248046875,0.282073974609375,0.0266265869140625,0.0215606689453125,-0.0224761962890625,0.0066680908203125
-0.24896240234375,0.056640625,0.084320068359375,-0.015106201171875,0.01007080078125,0.004302978515625
-0.1330108642578135,0.06651306152343991,-0.07984924316406297,-0.056228637695311806,0.03312683105468725,0.016326904296875073
-0.1875,0.24249267578125,-0.06817626953125,0.006195068359375,0.006134033203125,0.016387939453125
-0.15447998046875,0.3043975830078125,0.01824951171875,0.0001220703125,-0.004913330078125,0.0018157958984375
-0.169830322265625,0.13726806640625,0.149688720703125,-0.064605712890625,0.019775390625,0.00018310546875
-0.2232818603515625,0.1354217529296875,0.0781402587890625,-0.0341796875,0.0150299072265625,0.0006866455078125
-0.16345214843749997,0.16268920898437517,0.07327270507812515,-0.014587402343750078,0.018463134765625024,0.0010986328125000392
-0.16357421874999992,0.16445922851562486,0.08522033691406261,-0.02116394042968756,0.01995849609375003,0.002059936523437498
-0.144439697265625,0.152984619140625,0.0853271484375,-0.0242919921875,0.027069091796875,0.00128173828125
-0.08648681640625,0.12451171875,0.1016387939453125,-0.01947021484375,0.0399627685546875,-0.0006103515625

-0.2025146484375,0.151885986328125,0.037933349609375,0.00189208984375,-0.011474609375,0.012725830078125
-0.431854248046875,0.282073974609375,0.0266265869140625,0.0215606689453125,-0.0224761962890625,0.0066680908203125
-0.24896240234375,0.056640625,0.084320068359375,-0.015106201171875,0.01007080078125,0.004302978515625
-0.1330108642578135,0.06651306152343991,-0.07984924316406297,-0.056228637695311806,0.03312683105468725,0.016326904296875073
-0.1875,0.24249267578125,-0.06817626953125,0.006195068359375,0.006134033203125,0.016387939453125
-0.15447998046875,0.3043975830078125,0.01824951171875,0.0001220703125,-0.004913330078125,0.0018157958984375
-0.169830322265625,0.13726806640625,0.149688720703125,-0.064605712890625,0.019775390625,0.00018310546875
-0.2232818603515625,0.1354217529296875,0.0781402587890625,-0.0341796875,0.0150299072265625,0.0006866455078125
-0.16345214843749997,0.16268920898437517,0.07327270507812515,-0.014587402343750078,0.018463134765625024,0.0010986328125000392
-0.16357421874999992,0.16445922851562486,0.08522033691406261,-0.02116394042968756,0.01995849609375003,0.002059936523437498
-0.144439697265625,0.152984619140625,0.0853271484375,-0.0242919921875,0.027069091796875,0.00128173828125
-0.08648681640625,0.12451171875,0.1016387939453125,-0.01947021484375,0.0399627685546875,-0.0006103515625
-0.06304931640625,0.140899658203125,0.096771240234375,-0.02191162109375,0.045989990234375,-0.00439453125
-0.1036071777343754,0.1568603515624999,0.06108093261718761,-0.001831054687499726,0.031875610351562285,-0.006622314453125003
-0.12677001953125,0.132843017578125,0.06396484375,0.02679443359375,0.012939453125,-0.002166748046875
-0.183929443359375,0.12554931640625,0.02099609375,0.01617431640625,0.0126495361328125,0.0052337646484375
-0.156341552734375,0.1849365234375,0.120880126953125,0.008941650390625,0.027801513671875,0.020904541015625
-0.124542236328125,0.2899322509765625,0.1049957275390625,0.014984130859375,0.040618896484375,0.000885009765625
-0.09506225585938112,0.16021728515625072,0.16986083984374964,0.033050537109375076,0.05407714843750034,-0.011566162109375071
-0.34971618652343817,0.20367431640624972,0.14245605468749944,0.034698486328125014,0.06242370605468751,-0.013778686523437486

-0.16345214843749997,0.16268920898437517,0.07327270507812515,-0.014587402343750078,0.018463134765625024,0.0010986328125000392
-0.16357421874999992,0.16445922851562486,0.08522033691406261,-0.02116394042968756,0.01995849609375003,0.002059936523437498
-0.144439697265625,0.152984619140625,0.0853271484375,-0.0242919921875,0.027069091796875,0.00128173828125
-0.08648681640625,0.12451171875,0.1016387939453125,-0.01947021484375,0.0399627685546875,-0.0006103515625
-0.06304931640625,0.140899658203125,0.096771240234375,-0.02191162109375,0.045989990234375,-0.00439453125
-0.1036071777343754,0.1568603515624999,0.06108093261718761,-0.001831054687499726,0.031875610351562285,-0.006622314453125003
-0.12677001953125,0.132843017578125,0.06396484375,0.02679443359375,0.012939453125,-0.002166748046875
-0.183929443359375,0.12554931640625,0.02099609375,0.01617431640625,0.0126495361328125,0.0052337646484375
-0.156341552734375,0.1849365234375,0.120880126953125,0.008941650390625,0.027801513671875,0.020904541015625
-0.124542236328125,0.2899322509765625,0.1049957275390625,0.014984130859375,0.040618896484375,0.000885009765625
-0.09506225585938112,0.16021728515625072,0.16986083984374964,0.033050537109375076,0.05407714843750034,-0.011566162109375071
-0.34971618652343817,0.20367431640624972,0.14245605468749944,0.034698486328125014,0.06242370605468751,-0.013778686523437486
-0.364715576171875,0.1256103515625,0.0869140625,0.034881591796875,0.055084228515625,-0.00897216796875
-0.2732391357421875,0.053558349609375,0.0943756103515625,0.015625,0.057952880859375,-0.0077362060546875
-0.221405029296875,0.086395263671875,0.13714599609375,-0.011627197265625,0.0538330078125,-0.000640869140625
-0.19906616210937422,0.23658752441406228,0.17686462402343714,-0.02926635742187491,0.03213500976562488,-0.0010681152343750054
-0.090972900390625,0.027679443359375,0.1328125,-0.026123046875,-0.016876220703125,0.039520263671875
-0.069122314453125,0.111480712890625,0.1081695556640625,-0.0477752685546875,-0.002685546875,0.0465850830078125
-0.11785888671875,0.1912841796875,0.12164306640625,-0.04278564453125,0.0009765625,0.037841796875
-0.1519012451171875,0.135345458984375,0.0903167724609375,-0.02423095703125,-0.007781982421875,0.021331787109375

-0.156341552734375,0.1849365234375,0.120880126953125,0.008941650390625,0.027801513671875,0.020904541015625
-0.124542236328125,0.2899322509765625,0.1049957275390625,0.014984130859375,0.040618896484375,0.000885009765625
-0.09506225585938112,0.16021728515625072,0.16986083984374964,0.033050537109375076,0.05407714843750034,-0.011566162109375071
-0.34971618652343817,0.20367431640624972,0.14245605468749944,0.034698486328125014,0.06242370605468751,-0.013778686523437486
-0.364715576171875,0.1256103515625,0.0869140625,0.034881591796875,0.055084228515625,-0.00897216796875
-0.2732391357421875,0.053558349609375,0.0943756103515625,0.015625,0.057952880859375,-0.0077362060546875
-0.221405029296875,0.086395263671875,0.13714599609375,-0.011627197265625,0.0538330078125,-0.000640869140625
-0.19906616210937422,0.23658752441406228,0.17686462402343714,-0.02926635742187491,0.03213500976562488,-0.0010681152343750054
-0.090972900390625,0.027679443359375,0.1328125,-0.026123046875,-0.016876220703125,0.039520263671875
-0.069122314453125,0.111480712890625,0.1081695556640625,-0.0477752685546875,-0.002685546875,0.0465850830078125
-0.11785888671875,0.1912841796875,0.12164306640625,-0.04278564453125,0.0009765625,0.037841796875
-0.1519012451171875,0.135345458984375,0.0903167724609375,-0.02423095703125,-0.007781982421875,0.021331787109375
-0.08056640624999847,0.13369750976562608,0.04208374023437496,-0.019470214843750378,-0.013488769531250003,0.0045471191406248465
-0.033020019531250035,0.15596008300781222,0.04287719726562477,-0.03291320800781248,-0.011947631835937481,-0.0019226074218750325
-0.0888671875,0.129638671875,0.084991455078125,-0.02960205078125,-0.012969970703125,-0.00408935546875
-0.1766357421875,0.101043701171875,0.1885528564453125,-0.0161590576171875,-0.0008087158203125004,0.001953125
-0.11212158203125,0.2105712890625,0.090423583984375,-0.035614013671875,0.0001220703125,-0.000396728515625
-0.105438232421875,0.1385345458984375,0.1979522705078125,-0.031585693359375,-0.01739501953125,-0.0128021240234375
-0.174896240234375,0.195770263671875,0.01031494140625,-0.035858154296875,-0.007293701171875,-0.010345458984375
-0.2029571533203125,0.1844024658203125,-0.0189361572265625,-0.035186767578125,-0.009857177734375,-0.01422119140625

-0.090972900390625,0.027679443359375,0.1328125,-0.026123046875,-0.016876220703125,0.039520263671875
-0.069122314453125,0.111480712890625,0.1081695556640625,-0.0477752685546875,-0.002685546875,0.0465850830078125
-0.11785888671875,0.1912841796875,0.12164306640625,-0.04278564453125,0.0009765625,0.037841796875
-0.1519012451171875,0.135345458984375,0.0903167724609375,-0.02423095703125,-0.007781982421875,0.021331787109375
-0.08056640624999847,0.13369750976562608,0.04208374023437496,-0.019470214843750378,-0.013488769531250003,0.0045471191406248465
-0.033020019531250035,0.15596008300781222,0.04287719726562477,-0.03291320800781248,-0.011947631835937481,-0.0019226074218750325
-0.0888671875,0.129638671875,0.084991455078125,-0.02960205078125,-0.012969970703125,-0.00408935546875
-0.1766357421875,0.101043701171875,0.1885528564453125,-0.0161590576171875,-0.0008087158203125004,0.001953125
-0.11212158203125,0.2105712890625,0.090423583984375,-0.035614013671875,0.0001220703125,-0.000396728515625
-0.105438232421875,0.1385345458984375,0.1979522705078125,-0.031585693359375,-0.01739501953125,-0.0128021240234375
-0.174896240234375,0.195770263671875,0.01031494140625,-0.035858154296875,-0.007293701171875,-0.010345458984375
-0.2029571533203125,0.1844024658203125,-0.0189361572265625,-0.035186767578125,-0.009857177734375,-0.01422119140625
-0.22994995117187722,0.21154785156250114,-0.015350341796880248,-0.05490112304687533,0.015899658203125642,-0.00039672851562471
-0.39691162109375,0.331146240234375,-0.048675537109375,-0.025115966796875,0.0161285400390625,0.0133514404296875
-0.321075439453125,0.177490234375,0.15350341796875,-0.01824951171875,0.020294189453125,0.01434326171875
-0.1412811279296875,0.316375732421875,-0.10040283203125,-0.033233642578125,0.0166473388671875,0.0142669677734375
-0.122222900390625,0.1510009765625,0.033477783203125,-0.03326416015625,0.061676025390625,0.003875732421875
-0.11650085449218746,0.20851135253906242,0.006515502929687182,-0.03634643554687482,0.034591674804687236,0.005050659179687507
-0.132659912109375,0.20379638671875,-0.007904052734375,-0.02166748046875,0.02569580078125,0.007965087890625
-0.1268157958984375,0.1992034912109375,0.042755126953125,-0.023681640625,0.007171630859375,0.006927490234375

-0.11212158203125,0.2105712890625,0.090423583984375,-0.035614013671875,0.0001220703125,-0.000396728515625
-0.105438232421875,0.1385345458984375,0.1979522705078125,-0.031585693359375,-0.01739501953125,-0.0128021240234375
-0.174896240234375,0.195770263671875,0.01031494140625,-0.035858154296875,-0.007293701171875,-0.010345458984375
-0.2029571533203125,0.1844024658203125,-0.0189361572265625,-0.035186767578125,-0.009857177734375,-0.01422119140625
-0.22994995117187722,0.21154785156250114,-0.015350341796880248,-0.05490112304687533,0.015899658203125642,-0.00039672851562471
-0.39691162109375,0.331146240234375,-0.048675537109375,-0.025115966796875,0.0161285400390625,0.0133514404296875
-0.321075439453125,0.177490234375,0.15350341796875,-0.01824951171875,0.020294189453125,0.01434326171875
-0.1412811279296875,0.316375732421875,-0.10040283203125,-0.033233642578125,0.0166473388671875,0.0142669677734375
-0.122222900390625,0.1510009765625,0.033477783203125,-0.03326416015625,0.061676025390625,0.003875732421875
-0.11650085449218746,0.20851135253906242,0.006515502929687182,-0.03634643554687482,0.034591674804687236,0.005050659179687507
-0.132659912109375,0.20379638671875,-0.007904052734375,-0.02166748046875,0.02569580078125,0.007965087890625
-0.1268157958984375,0.1992034912109375,0.042755126953125,-0.023681640625,0.007171630859375,0.006927490234375
-0.1043701171875,0.20556640625,0.05133056640625,-0.021820068359375,0.001556396484375,0.01031494140625
-0.102874755859375,0.2415313720703125,0.072113037109375,-0.020172119140625,-0.0010986328125,0.01275634765625
-0.154327392578125,0.200042724609375,0.042877197265625,-0.01763916015625,0.015106201171875,0.01104736328125
-0.1681976318359375,0.1621551513671875,0.072784423828125,-0.0179443359375,0.0316925048828125,0.0076446533203125
-0.328216552734375,0.151458740234375,0.129974365234375,0.017242431640625,0.10516357421875,-0.0068359375
-0.339019775390625,0.1084747314453125,0.04937744140625,-0.0039215087890625,0.1298675537109375,0.0037078857421875
0.029083251953125,0.402099609375,0.043121337890625,0.00323486328125,0.06195068359375,-0.0367431640625
-0.10783386230468847,0.2587738037109383,0.0785827636718753,0.02125549316406273,0.05378723144531216,-0.015914916992187333

-0.122222900390625,0.1510009765625,0.033477783203125,-0.03326416015625,0.061676025390625,0.003875732421875
-0.11650085449218746,0.20851135253906242,0.006515502929687182,-0.03634643554687482,0.034591674804687236,0.005050659179687507
-0.132659912109375,0.20379638671875,-0.007904052734375,-0.02166748046875,0.02569580078125,0.007965087890625
-0.1268157958984375,0.1992034912109375,0.042755126953125,-0.023681640625,0.007171630859375,0.006927490234375
-0.1043701171875,0.20556640625,0.05133056640625,-0.021820068359375,0.001556396484375,0.01031494140625
-0.102874755859375,0.2415313720703125,0.072113037109375,-0.020172119140625,-0.0010986328125,0.01275634765625
-0.154327392578125,0.200042724609375,0.042877197265625,-0.01763916015625,0.015106201171875,0.01104736328125
-0.1681976318359375,0.1621551513671875,0.072784423828125,-0.0179443359375,0.0316925048828125,0.0076446533203125
-0.328216552734375,0.151458740234375,0.129974365234375,0.017242431640625,0.10516357421875,-0.0068359375
-0.339019775390625,0.1084747314453125,0.04937744140625,-0.0039215087890625,0.1298675537109375,0.0037078857421875
0.029083251953125,0.402099609375,0.043121337890625,0.00323486328125,0.06195068359375,-0.0367431640625
-0.10783386230468847,0.2587738037109383,0.0785827636718753,0.02125549316406273,0.05378723144531216,-0.015914916992187333
-0.131256103515625,0.24169921875,0.099334716796875,0.04315185546875,0.036712646484375,-0.006317138671875
-0.0868072509765625,0.155487060546875,0.095794677734375,0.0537109375,0.015625,-0.0022735595703125
-0.071014404296875,0.08599853515625,0.10198974609375,0.033966064453125,0.008514404296875,-0.000518798828125
-0.073944091796875,0.071624755859375,0.1075286865234375,-0.0003204345703125,0.0031890869140625,0.01007080078125
-0.08349609375,0.078369140625,0.131744384765625,-0.02874755859375,-0.023468017578125,0.02410888671875
-0.147064208984375,0.134124755859375,0.1773681640625,-0.0471038818359375,-0.0107421875,0.02716064453125
-0.17156982421875,0.19970703125,0.177978515625,-0.054412841796875,-0.00091552734375,0.0257568359375
-0.0996856689453125,0.1908111572265625,0.0492706298828125,-0.035919189453125,-0.010955810546875,0.0111236572265625

-0.328216552734375,0.151458740234375,0.129974365234375,0.017242431640625,0.10516357421875,-0.0068359375
-0.339019775390625,0.1084747314453125,0.04937744140625,-0.0039215087890625,0.1298675537109375,0.0037078857421875
0.029083251953125,0.402099609375,0.043121337890625,0.00323486328125,0.06195068359375,-0.0367431640625
-0.10783386230468847,0.2587738037109383,0.0785827636718753,0.02125549316406273,0.05378723144531216,-0.015914916992187333
-0.131256103515625,0.24169921875,0.099334716796875,0.04315185546875,0.036712646484375,-0.006317138671875
-0.0868072509765625,0.155487060546875,0.095794677734375,0.0537109375,0.015625,-0.0022735595703125
-0.071014404296875,0.08599853515625,0.10198974609375,0.033966064453125,0.008514404296875,-0.000518798828125
-0.073944091796875,0.071624755859375,0.1075286865234375,-0.0003204345703125,0.0031890869140625,0.01007080078125
-0.08349609375,0.078369140625,0.131744384765625,-0.02874755859375,-0.023468017578125,0.02410888671875
-0.147064208984375,0.134124755859375,0.1773681640625,-0.0471038818359375,-0.0107421875,0.02716064453125
-0.17156982421875,0.19970703125,0.177978515625,-0.054412841796875,-0.00091552734375,0.0257568359375
-0.0996856689453125,0.1908111572265625,0.0492706298828125,-0.035919189453125,-0.010955810546875,0.0111236572265625
-0.279022216796875,0.35687255859375,0.1746826171875,-0.028106689453125,-0.0262451171875,0.00531005859375
-0.1686248779296895,0.10032653808593375,0.10919189453124889,-0.0035552978515630837,0.018112182617187576,-0.003646850585937317
-0.286102294921875,-0.02386474609375,0.03057861328125,-0.006622314453125,0.006317138671875,0.00628662109375
-0.1584930419921875,0.2216339111328125,0.006561279296875,-0.0271148681640625,0.0077972412109375,0.019683837890625
-0.15704345703125244,0.16903686523437275,0.073547363281251,0.003936767578125043,-0.01892089843750029,6.103515624988616e-05
-0.2037506103515625,0.1106414794921875,0.0773468017578125,-0.00238037109375,-0.01129150390625,-0.001220703125
-0.177886962890625,0.131591796875,0.076995849609375,-0.012054443359375,0.00341796875,0.00274658203125
-0.1360015869140625,0.18634033203125,0.06793212890625,-0.0113677978515625,0.0074920654296875,0.006622314453125

-0.08349609375,0.078369140625,0.131744384765625,-0.02874755859375,-0.023468017578125,0.02410888671875
-0.147064208984375,0.134124755859375,0.1773681640625,-0.0471038818359375,-0.0107421875,0.02716064453125
-0.17156982421875,0.19970703125,0.177978515625,-0.054412841796875,-0.00091552734375,0.0257568359375
-0.0996856689453125,0.1908111572265625,0.0492706298828125,-0.035919189453125,-0.010955810546875,0.0111236572265625
-0.279022216796875,0.35687255859375,0.1746826171875,-0.028106689453125,-0.0262451171875,0.00531005859375
-0.1686248779296895,0.10032653808593375,0.10919189453124889,-0.0035552978515630837,0.018112182617187576,-0.003646850585937317
-0.286102294921875,-0.02386474609375,0.03057861328125,-0.006622314453125,0.006317138671875,0.00628662109375
-0.1584930419921875,0.2216339111328125,0.006561279296875,-0.0271148681640625,0.0077972412109375,0.019683837890625
-0.15704345703125244,0.16903686523437275,0.073547363281251,0.003936767578125043,-0.01892089843750029,6.103515624988616e-05
-0.2037506103515625,0.1106414794921875,0.0773468017578125,-0.00238037109375,-0.01129150390625,-0.001220703125
-0.177886962890625,0.131591796875,0.076995849609375,-0.012054443359375,0.00341796875,0.00274658203125
-0.1360015869140625,0.18634033203125,0.06793212890625,-0.0113677978515625,0.0074920654296875,0.006622314453125
-0.113555908203125,0.17144775390625,0.06976318359375,-0.003936767578125,0.007476806640625,0.005706787109375
-0.13993835449218828,0.13047790527343744,0.09472656250000105,0.002044677734375157,0.005767822265625038,0.0050354003906250815
-0.153717041015625,0.164459228515625,0.09393310546875,-0.001068115234375,0.014312744140625,0.008331298828125
-0.1493377685546886,0.07960510253906061,0.10659790039062406,0.020324707031250288,0.016983032226562576,0.0025939941406249835
-0.0966796875,0.15899658203125,0.11444091796875,0.003326416015625,0.037078857421875,-0.003662109375
-0.048583984375,0.161956787109375,0.1099090576171875,0.0200958251953125,0.03765869140625,0.007476806640625
-0.11764526367187812,0.2284851074218771,0.18707275390624836,0.0354003906250002,0.049987792968750375,0.0006713867187489808
-0.262451171875,0.2363128662109375,0.1157989501953125,0.0458831787109375,0.05218505859375,-0.0171966552734375

-0.15704345703125244,0.16903686523437275,0.073547363281251,0.003936767578125043,-0.01892089843750029,6.103515624988616e-05
-0.2037506103515625,0.1106414794921875,0.0773468017578125,-0.00238037109375,-0.01129150390625,-0.001220703125
-0.177886962890625,0.131591796875,0.076995849609375,-0.012054443359375,0.00341796875,0.00274658203125
-0.1360015869140625,0.18634033203125,0.06793212890625,-0.0113677978515625,0.0074920654296875,0.006622314453125
-0.113555908203125,0.17144775390625,0.06976318359375,-0.003936767578125,0.007476806640625,0.005706787109375
-0.13993835449218828,0.13047790527343744,0.09472656250000105,0.002044677734375157,0.005767822265625038,0.0050354003906250815
-0.153717041015625,0.164459228515625,0.09393310546875,-0.001068115234375,0.014312744140625,0.008331298828125
-0.1493377685546886,0.07960510253906061,0.10659790039062406,0.020324707031250288,0.016983032226562576,0.0025939941406249835
-0.0966796875,0.15899658203125,0.11444091796875,0.003326416015625,0.037078857421875,-0.003662109375
-0.048583984375,0.161956787109375,0.1099090576171875,0.0200958251953125,0.03765869140625,0.007476806640625
-0.11764526367187812,0.2284851074218771,0.18707275390624836,0.0354003906250002,0.049987792968750375,0.0006713867187489808
-0.262451171875,0.2363128662109375,0.1157989501953125,0.0458831787109375,0.05218505859375,-0.0171966552734375
-0.329803466796875,0.190765380859375,0.133941650390625,0.05401611328125,0.057647705078125,-0.018402099609375
-0.3478546142578125,0.1607818603515625,0.1043243408203125,0.031158447265625,0.0600433349609375,-0.0090179443359375
-0.19268798828125,0.180145263671875,0.16033935546875,0.007659912109375,0.0526123046875,-0.015045166015625
-0.1911621093749997,0.1873474121093739,0.18188476562500136,-0.016418457031251724,0.025650024414061064,-0.01225280761718715
-0.07208251953125,0.000701904296875,0.077056884765625,-0.028350830078125,-0.04827880859375,0.027740478515625
-0.0601501464843757,0.018615722656252543,0.019165039062498085,-0.04707336425781259,-0.022155761718749757,0.041610717773437514
-0.105804443359375,0.13165283203125,0.01226806640625,-0.026092529296875,-0.0162353515625,0.037841796875
-0.1536407470703125,0.1921844482421875,0.0435943603515625,0.000213623046875,-0.02740478515625,0.014373779296875

-0.0966796875,0.15899658203125,0.11444091796875,0.003326416015625,0.037078857421875,-0.003662109375
-0.048583984375,0.161956787109375,0.1099090576171875,0.0200958251953125,0.03765869140625,0.007476806640625
-0.11764526367187812,0.2284851074218771,0.18707275390624836,0.0354003906250002,0.049987792968750375,0.0006713867187489808
-0.262451171875,0.2363128662109375,0.1157989501953125,0.0458831787109375,0.05218505859375,-0.0171966552734375
-0.329803466796875,0.190765380859375,0.133941650390625,0.05401611328125,0.057647705078125,-0.018402099609375
-0.3478546142578125,0.1607818603515625,0.1043243408203125,0.031158447265625,0.0600433349609375,-0.0090179443359375
-0.19268798828125,0.180145263671875,0.16033935546875,0.007659912109375,0.0526123046875,-0.015045166015625
-0.1911621093749997,0.1873474121093739,0.18188476562500136,-0.016418457031251724,0.025650024414061064,-0.01225280761718715
-0.07208251953125,0.000701904296875,0.077056884765625,-0.028350830078125,-0.04827880859375,0.027740478515625
-0.0601501464843757,0.018615722656252543,0.019165039062498085,-0.04707336425781259,-0.022155761718749757,0.041610717773437514
-0.105804443359375,0.13165283203125,0.01226806640625,-0.026092529296875,-0.0162353515625,0.037841796875
-0.1536407470703125,0.1921844482421875,0.0435943603515625,0.000213623046875,-0.02740478515625,0.014373779296875
-0.1423950195312465,0.13821411132812483,0.10754394531250629,-0.012420654296875958,-0.03933715820312484,-0.014404296875000014
-0.106201171875,0.13702392578125,0.19464111328125,-0.0274810791015625,-0.0275115966796875,-0.0106964111328125
-0.106353759765625,0.190277099609375,0.182586669921875,-0.043853759765625,-0.000885009765625,-0.0032958984375
-0.1711578369140625,0.211517333984375,0.1438140869140625,-0.044189453125,0.012847900390625,-0.0064849853515625
-0.25238037109375,0.2071533203125,0.0762939453125,0.01885986328125,-0.037506103515625,-0.003570556640625
-0.19412231445311684,0.31544494628906117,0.07250976562499756,0.006576538085937346,-0.0355682373046855,-0.006546020507812427
-0.116485595703125,0.27655029296875,0.06939697265625,-0.02099609375,0.0069580078125,-0.00628662109375
-0.2577514648437472,0.2837219238281255,0.04179382324218554,-0.029663085937499983,0.007095336914062664,-0.0007324218749999268

-0.07208251953125,0.000701904296875,0.077056884765625,-0.028350830078125,-0.04827880859375,0.027740478515625
-0.0601501464843757,0.018615722656252543,0.019165039062498085,-0.04707336425781259,-0.022155761718749757,0.041610717773437514
-0.105804443359375,0.13165283203125,0.01226806640625,-0.026092529296875,-0.0162353515625,0.037841796875
-0.1536407470703125,0.1921844482421875,0.0435943603515625,0.000213623046875,-0.02740478515625,0.014373779296875
-0.1423950195312465,0.13821411132812483,0.10754394531250629,-0.012420654296875958,-0.03933715820312484,-0.014404296875000014
-0.106201171875,0.13702392578125,0.19464111328125,-0.0274810791015625,-0.0275115966796875,-0.0106964111328125
-0.106353759765625,0.190277099609375,0.182586669921875,-0.043853759765625,-0.000885009765625,-0.0032958984375
-0.1711578369140625,0.211517333984375,0.1438140869140625,-0.044189453125,0.012847900390625,-0.0064849853515625
-0.25238037109375,0.2071533203125,0.0762939453125,0.01885986328125,-0.037506103515625,-0.003570556640625
-0.19412231445311684,0.31544494628906117,0.07250976562499756,0.006576538085937346,-0.0355682373046855,-0.006546020507812427
-0.116485595703125,0.27655029296875,0.06939697265625,-0.02099609375,0.0069580078125,-0.00628662109375
-0.2577514648437472,0.2837219238281255,0.04179382324218554,-0.029663085937499983,0.007095336914062664,-0.0007324218749999268
-0.27862548828125,0.44647216796875,0.150787353515625,-0.00885009765625,-0.009796142578125,-0.003936767578125
-0.3594207763671875,0.3784942626953125,0.2532196044921875,0.0257720947265625,-0.0092010498046875,0.0049285888671875
-0.18554687499999956,0.07827758789062644,0.08380126953124498,0.03433227539062377,0.019561767578125337,0.0036621093750004823
-0.1442718505859375,0.12725830078125,-0.028717041015625,0.013763427734375,0.0127716064453125,0.0076904296875
-0.24285888671875,0.107635498046875,0.082672119140625,0.02880859375,-0.01666259765625,0.0135498046875
-0.1750640869140625,0.14837646484375,0.0601806640625,0.0059051513671875,-0.0106353759765625,0.018341064453125
-0.1103515625,0.11199951171875,0.150421142578125,-0.003509521484375,0.021331787109375,0.017120361328125
-0.1269531249999987,0.11672973632812954,0.0701904296875008,0.020339965820312333,0.048461914062499306,0.010238647460937243

-0.25238037109375,0.2071533203125,0.0762939453125,0.01885986328125,-0.037506103515625,-0.003570556640625
-0.19412231445311684,0.31544494628906117,0.07250976562499756,0.006576538085937346,-0.0355682373046855,-0.006546020507812427
-0.116485595703125,0.27655029296875,0.06939697265625,-0.02099609375,0.0069580078125,-0.00628662109375
-0.2577514648437472,0.2837219238281255,0.04179382324218554,-0.029663085937499983,0.007095336914062664,-0.0007324218749999268
-0.27862548828125,0.44647216796875,0.150787353515625,-0.00885009765625,-0.009796142578125,-0.003936767578125
-0.3594207763671875,0.3784942626953125,0.2532196044921875,0.0257720947265625,-0.0092010498046875,0.0049285888671875
-0.18554687499999956,0.07827758789062644,0.08380126953124498,0.03433227539062377,0.019561767578125337,0.0036621093750004823
-0.1442718505859375,0.12725830078125,-0.028717041015625,0.013763427734375,0.0127716064453125,0.0076904296875
-0.24285888671875,0.107635498046875,0.082672119140625,0.02880859375,-0.01666259765625,0.0135498046875
-0.1750640869140625,0.14837646484375,0.0601806640625,0.0059051513671875,-0.0106353759765625,0.018341064453125
-0.1103515625,0.11199951171875,0.150421142578125,-0.003509521484375,0.021331787109375,0.017120361328125
-0.1269531249999987,0.11672973632812954,0.0701904296875008,0.020339965820312333,0.048461914062499306,0.010238647460937243
-0.002716064453125,0.3035888671875,0.083648681640625,0.004241943359375,0.036956787109375,0.005401611328125
-0.030471801757813048,0.26348876953125133,0.16320800781250225,0.006240844726562423,0.0323638916015627,0.004302978515624916
-0.082611083984375,0.22821044921875,0.211212158203125,0.029052734375,0.0528564453125,-0.006439208984375
-0.149749755859375,0.0959014892578125,0.1024627685546875,0.05859375,0.039031982421875,-0.0161590576171875
-0.26037597656249856,0.11120605468750153,0.17065429687500416,0.029937744140624337,0.04269409179687438,-0.033447265624999986
-0.230072021484375,0.1924285888671875,0.256439208984375,0.006683349609375,0.0258636474609375,-0.03509521484375
-0.21136474609375,0.227508544921875,0.2027587890625,-0.001800537109375,0.014129638671875,-0.03765869140625
-0.1876068115234375,0.1510009765625,0.158905029296875,-0.0040283203125,0.0083465576171875,-0.036407470703125

-0.24285888671875,0.107635498046875,0.082672119140625,0.02880859375,-0.01666259765625,0.0135498046875
-0.1750640869140625,0.14837646484375,0.0601806640625,0.0059051513671875,-0.0106353759765625,0.018341064453125
-0.1103515625,0.11199951171875,0.150421142578125,-0.003509521484375,0.021331787109375,0.017120361328125
-0.1269531249999987,0.11672973632812954,0.0701904296875008,0.020339965820312333,0.048461914062499306,0.010238647460937243
-0.002716064453125,0.3035888671875,0.083648681640625,0.004241943359375,0.036956787109375,0.005401611328125
-0.030471801757813048,0.26348876953125133,0.16320800781250225,0.006240844726562423,0.0323638916015627,0.004302978515624916
-0.082611083984375,0.22821044921875,0.211212158203125,0.029052734375,0.0528564453125,-0.006439208984375
-0.149749755859375,0.0959014892578125,0.1024627685546875,0.05859375,0.039031982421875,-0.0161590576171875
-0.26037597656249856,0.11120605468750153,0.17065429687500416,0.029937744140624337,0.04269409179687438,-0.033447265624999986
-0.230072021484375,0.1924285888671875,0.256439208984375,0.006683349609375,0.0258636474609375,-0.03509521484375
-0.21136474609375,0.227508544921875,0.2027587890625,-0.001800537109375,0.014129638671875,-0.03765869140625
-0.1876068115234375,0.1510009765625,0.158905029296875,-0.0040283203125,0.0083465576171875,-0.036407470703125
-0.1142578125,0.138763427734375,0.148651123046875,-0.010009765625,0.00048828125,-0.01434326171875
-0.12057495117187579,0.1049041748046865,0.1227111816406243,-0.006591796875000038,-0.012100219726562942,-0.005554199218749783
-0.14556884765625,0.013946533203125,0.109649658203125,-0.017578125,-0.017974853515625,0.00897216796875
-0.0982666015624994,0.013305664062500906,0.1134796142578126,-0.045333862304687784,-0.011856079101562444,0.01741027832031261
-0.041656494140625,0.06768798828125,3.0517578125e-05,-0.0238037109375,-0.014068603515625,0.03839111328125
-0.1052703857421875,0.1548004150390625,0.05615234375,-0.0162200927734375,-0.015594482421875,0.0334625244140625
-0.1856689453125028,0.23422241210937428,0.1514587402343756,-0.01824951171874966,-0.021759033203125076,0.02410888671874936
-0.2101287841796875,0.1683807373046875,0.1375274658203125,-0.007781982421875,-0.018157958984375,0.0085296630859375

-0.26037597656249856,0.11120605468750153,0.17065429687500416,0.029937744140624337,0.04269409179687438,-0.033447265624999986
-0.230072021484375,0.1924285888671875,0.256439208984375,0.006683349609375,0.0258636474609375,-0.03509521484375
-0.21136474609375,0.227508544921875,0.2027587890625,-0.001800537109375,0.014129638671875,-0.03765869140625
-0.1876068115234375,0.1510009765625,0.158905029296875,-0.0040283203125,0.0083465576171875,-0.036407470703125
-0.1142578125,0.138763427734375,0.148651123046875,-0.010009765625,0.00048828125,-0.01434326171875
-0.12057495117187579,0.1049041748046865,0.1227111816406243,-0.006591796875000038,-0.012100219726562942,-0.005554199218749783
-0.14556884765625,0.013946533203125,0.109649658203125,-0.017578125,-0.017974853515625,0.00897216796875
-0.0982666015624994,0.013305664062500906,0.1134796142578126,-0.045333862304687784,-0.011856079101562444,0.01741027832031261
-0.041656494140625,0.06768798828125,3.0517578125e-05,-0.0238037109375,-0.014068603515625,0.03839111328125
-0.1052703857421875,0.1548004150390625,0.05615234375,-0.0162200927734375,-0.015594482421875,0.0334625244140625
-0.1856689453125028,0.23422241210937428,0.1514587402343756,-0.01824951171874966,-0.021759033203125076,0.02410888671874936
-0.2101287841796875,0.1683807373046875,0.1375274658203125,-0.007781982421875,-0.018157958984375,0.0085296630859375
-0.14300537109375,0.18115234375,0.15313720703125,-0.013763427734375,-0.018585205078125,-0.001007080078125
-0.118255615234375,0.2420654296875,0.1827850341796875,-0.0311431884765625,-0.0039520263671875,-0.000244140625
-0.156585693359375,0.157684326171875,0.226959228515625,-0.0318603515625,-0.007537841796875,-0.001739501953125
-0.08784484863281275,0.14149475097656294,0.1319274902343762,-0.022018432617186973,-0.013442993164062746,-0.004486083984375087
-0.369537353515625,0.29010009765625,-0.052764892578125,-0.0499267578125,0.013092041015625,0.0135498046875
-0.3982391357421897,0.48854064941405995,0.18107604980468806,-0.014663696289061843,-0.015426635742187993,0.004821777343749823
-0.2041015625,0.080718994140625,0.0841064453125,0.018585205078125,0.002655029296875,-6.103515625e-05
-0.1429901123046875,0.1676483154296875,-0.082550048828125,-0.0077362060546875,0.0078277587890625,0.0151824951171875

-0.041656494140625,0.06768798828125,3.0517578125e-05,-0.0238037109375,-0.014068603515625,0.03839111328125
-0.1052703857421875,0.1548004150390625,0.05615234375,-0.0162200927734375,-0.015594482421875,0.0334625244140625
-0.1856689453125028,0.23422241210937428,0.1514587402343756,-0.01824951171874966,-0.021759033203125076,0.02410888671874936
-0.2101287841796875,0.1683807373046875,0.1375274658203125,-0.007781982421875,-0.018157958984375,0.0085296630859375
-0.14300537109375,0.18115234375,0.15313720703125,-0.013763427734375,-0.018585205078125,-0.001007080078125
-0.118255615234375,0.2420654296875,0.1827850341796875,-0.0311431884765625,-0.0039520263671875,-0.000244140625
-0.156585693359375,0.157684326171875,0.226959228515625,-0.0318603515625,-0.007537841796875,-0.001739501953125
-0.08784484863281275,0.14149475097656294,0.1319274902343762,-0.022018432617186973,-0.013442993164062746,-0.004486083984375087
-0.369537353515625,0.29010009765625,-0.052764892578125,-0.0499267578125,0.013092041015625,0.0135498046875
-0.3982391357421897,0.48854064941405995,0.18107604980468806,-0.014663696289061843,-0.015426635742187993,0.004821777343749823
-0.2041015625,0.080718994140625,0.0841064453125,0.018585205078125,0.002655029296875,-6.103515625e-05
-0.1429901123046875,0.1676483154296875,-0.082550048828125,-0.0077362060546875,0.0078277587890625,0.0151824951171875
-0.15582275390624495,0.2857666015624951,-0.0357666015624966,-0.016937255859376152,0.0030212402343750486,0.00567626953124875
-0.0753021240234375,0.117645263671875,-0.0167999267578125,-0.00213623046875,-1.52587890625e-05,-0.0202178955078125
-0.140106201171875,0.036529541015625,0.068695068359375,0.020904541015625,-0.008636474609375,-0.01287841796875
-0.13592529296875,0.1127777099609375,0.1986541748046875,-0.0098114013671875,0.0112457275390625,0.0003509521484375
-0.026275634765625,0.254150390625,0.0892333984375,0.02691650390625,0.02996826171875,0.003387451171875
-0.11479187011718832,0.07356262207031365,-0.0057525634765620256,0.013626098632811353,0.03836059570312548,0.0059967041015630725
-0.043121337890625,0.17510986328125,0.10333251953125,-0.0030517578125,0.0377197265625,0.00762939453125
-0.11576843261718742,0.17666625976562347,0.17955017089843114,0.021102905273437413,0.036437988281250146,0.0024871826171874987

-0.369537353515625,0.29010009765625,-0.052764892578125,-0.0499267578125,0.013092041015625,0.0135498046875
-0.3982391357421897,0.48854064941405995,0.18107604980468806,-0.014663696289061843,-0.015426635742187993,0.004821777343749823
-0.2041015625,0.080718994140625,0.0841064453125,0.018585205078125,0.002655029296875,-6.103515625e-05
-0.1429901123046875,0.1676483154296875,-0.082550048828125,-0.0077362060546875,0.0078277587890625,0.0151824951171875
-0.15582275390624495,0.2857666015624951,-0.0357666015624966,-0.016937255859376152,0.0030212402343750486,0.00567626953124875
-0.0753021240234375,0.117645263671875,-0.0167999267578125,-0.00213623046875,-1.52587890625e-05,-0.0202178955078125
-0.140106201171875,0.036529541015625,0.068695068359375,0.020904541015625,-0.008636474609375,-0.01287841796875
-0.13592529296875,0.1127777099609375,0.1986541748046875,-0.0098114013671875,0.0112457275390625,0.0003509521484375
-0.026275634765625,0.254150390625,0.0892333984375,0.02691650390625,0.02996826171875,0.003387451171875
-0.11479187011718832,0.07356262207031365,-0.0057525634765620256,0.013626098632811353,0.03836059570312548,0.0059967041015630725
-0.043121337890625,0.17510986328125,0.10333251953125,-0.0030517578125,0.0377197265625,0.00762939453125
-0.11576843261718742,0.17666625976562347,0.17955017089843114,0.021102905273437413,0.036437988281250146,0.0024871826171874987
-0.07562255859375,0.12274169921875,0.131378173828125,0.040740966796875,0.036407470703125,0.003448486328125
-0.131683349609375,0.2158050537109375,0.16461181640625,0.040802001953125,0.04718017578125,-0.0025787353515624996
-0.2510375976562521,0.3068237304687488,0.18347167968750017,0.03677368164062532,0.05200195312499999,-0.020721435546875482
-0.29541015625,0.2237548828125,0.150299072265625,0.04425048828125,0.059844970703125,-0.0223388671875
-0.115966796875,0.197967529296875,0.137969970703125,-0.00677490234375,-0.0086669921875,-0.0191650390625
-0.0970458984375,0.0811767578125,0.0909881591796875,-0.0088958740234375,-0.02142333984375,-0.0085906982421875
-0.127166748046875,0.015472412109375,0.08477783203125,-0.018890380859375,-0.030792236328125,0.000152587890625
-0.13250732421874936,-0.009353637695312665,0.10687255859375097,-0.043045043945313374,-0.03240966796874998,0.010391235351562904

-0.026275634765625,0.254150390625,0.0892333984375,0.02691650390625,0.02996826171875,0.003387451171875
-0.11479187011718832,0.07356262207031365,-0.0057525634765620256,0.013626098632811353,0.03836059570312548,0.0059967041015630725
-0.043121337890625,0.17510986328125,0.10333251953125,-0.0030517578125,0.0377197265625,0.00762939453125
-0.11576843261718742,0.17666625976562347,0.17955017089843114,0.021102905273437413,0.036437988281250146,0.0024871826171874987
-0.07562255859375,0.12274169921875,0.131378173828125,0.040740966796875,0.036407470703125,0.003448486328125
-0.131683349609375,0.2158050537109375,0.16461181640625,0.040802001953125,0.04718017578125,-0.0025787353515624996
-0.2510375976562521,0.3068237304687488,0.18347167968750017,0.03677368164062532,0.05200195312499999,-0.020721435546875482
-0.29541015625,0.2237548828125,0.150299072265625,0.04425048828125,0.059844970703125,-0.0223388671875
-0.115966796875,0.197967529296875,0.137969970703125,-0.00677490234375,-0.0086669921875,-0.0191650390625
-0.0970458984375,0.0811767578125,0.0909881591796875,-0.0088958740234375,-0.02142333984375,-0.0085906982421875
-0.127166748046875,0.015472412109375,0.08477783203125,-0.018890380859375,-0.030792236328125,0.000152587890625
-0.13250732421874936,-0.009353637695312665,0.10687255859375097,-0.043045043945313374,-0.03240966796874998,0.010391235351562904
-0.10675048828125,-0.014373779296875,0.1239013671875,-0.06060791015625,-0.030029296875,0.021392822265625
-0.04708862304687465,-0.011886596679686924,0.027999877929684776,-0.05508422851562468,-0.02438354492187491,0.03562927246093769
-0.05615234375,0.03607177734375,-0.038055419921875,-0.028045654296875,-0.02069091796875,0.043121337890625
-0.1699066162109375,0.243255615234375,0.022705078125,-0.0101318359375,-0.0451507568359375,0.0233917236328125
-0.1774291992187525,0.15911865234374734,0.2599182128906177,-0.06362915039062249,0.022216796875000017,-0.003387451171874943
-0.1795501708984375,0.0894012451171875,0.0597686767578125,-0.0118408203125,0.0182952880859375,-0.0026092529296875
-0.07147216796875,0.048614501953125,0.03558349609375,0.006011962890625,0.005584716796875,0.00146484375
-0.1163330078125,0.162139892578125,-0.00311279296875,-0.001220703125,-0.008514404296875,0.00341796875

-0.115966796875,0.197967529296875,0.137969970703125,-0.00677490234375,-0.0086669921875,-0.0191650390625
-0.0970458984375,0.0811767578125,0.0909881591796875,-0.0088958740234375,-0.02142333984375,-0.0085906982421875
-0.127166748046875,0.015472412109375,0.08477783203125,-0.018890380859375,-0.030792236328125,0.000152587890625
-0.13250732421874936,-0.009353637695312665,0.10687255859375097,-0.043045043945313374,-0.03240966796874998,0.010391235351562904
-0.10675048828125,-0.014373779296875,0.1239013671875,-0.06060791015625,-0.030029296875,0.021392822265625
-0.04708862304687465,-0.011886596679686924,0.027999877929684776,-0.05508422851562468,-0.02438354492187491,0.03562927246093769
-0.05615234375,0.03607177734375,-0.038055419921875,-0.028045654296875,-0.02069091796875,0.043121337890625
-0.1699066162109375,0.243255615234375,0.022705078125,-0.0101318359375,-0.0451507568359375,0.0233917236328125
-0.1774291992187525,0.15911865234374734,0.2599182128906177,-0.06362915039062249,0.022216796875000017,-0.003387451171874943
-0.1795501708984375,0.0894012451171875,0.0597686767578125,-0.0118408203125,0.0182952880859375,-0.0026092529296875
-0.07147216796875,0.048614501953125,0.03558349609375,0.006011962890625,0.005584716796875,0.00146484375
-0.1163330078125,0.162139892578125,-0.00311279296875,-0.001220703125,-0.008514404296875,0.00341796875
-0.206268310546875,0.357147216796875,0.067779541015625,-0.02301025390625,-0.02447509765625,-0.002777099609375
-0.21087646484376055,0.24041748046875056,0.06280517578125397,-0.02291870117187577,0.004226684570312725,0.0008850097656257537
-0.23876953125,0.329833984375,0.007598876953125,-0.03851318359375,0.01007080078125,0.01580810546875
-0.11709594726562375,0.3060913085937503,-0.010528564453124696,-0.007125854492187073,-0.00022888183593775327,0.006927490234374797
-0.138214111328125,0.215972900390625,-0.023895263671875,-0.013214111328125,0.012603759765625,0.0107421875
-0.071075439453125,0.0473175048828125,0.094085693359375,0.0152130126953125,0.024017333984375,-0.00042724609375
-0.1658020019531271,0.1445617675781227,0.04055786132812832,-0.035705566406248,0.06027221679687437,0.011047363281250206
-0.2112884521484375,0.0883331298828125,0.07904052734375,0.013214111328125,0.0276641845703125,0.0121612548828125

-0.1774291992187525,0.15911865234374734,0.2599182128906177,-0.06362915039062249,0.022216796875000017,-0.003387451171874943
-0.1795501708984375,0.0894012451171875,0.0597686767578125,-0.0118408203125,0.0182952880859375,-0.0026092529296875
-0.07147216796875,0.048614501953125,0.03558349609375,0.006011962890625,0.005584716796875,0.00146484375
-0.1163330078125,0.162139892578125,-0.00311279296875,-0.001220703125,-0.008514404296875,0.00341796875
-0.206268310546875,0.357147216796875,0.067779541015625,-0.02301025390625,-0.02447509765625,-0.002777099609375
-0.21087646484376055,0.24041748046875056,0.06280517578125397,-0.02291870117187577,0.004226684570312725,0.0008850097656257537
-0.23876953125,0.329833984375,0.007598876953125,-0.03851318359375,0.01007080078125,0.01580810546875
-0.11709594726562375,0.3060913085937503,-0.010528564453124696,-0.007125854492187073,-0.00022888183593775327,0.006927490234374797
-0.138214111328125,0.215972900390625,-0.023895263671875,-0.013214111328125,0.012603759765625,0.0107421875
-0.071075439453125,0.0473175048828125,0.094085693359375,0.0152130126953125,0.024017333984375,-0.00042724609375
-0.1658020019531271,0.1445617675781227,0.04055786132812832,-0.035705566406248,0.06027221679687437,0.011047363281250206
-0.2112884521484375,0.0883331298828125,0.07904052734375,0.013214111328125,0.0276641845703125,0.0121612548828125
-0.106719970703125,0.20599365234375,0.03057861328125,0.00054931640625,0.020172119140625,0.008575439453125
-0.0557098388671875,0.241241455078125,0.0856781005859375,-0.0017242431640625,0.02972412109375,0.0131988525390625
-0.138916015625,0.136962890625,0.08453369140625,0.014373779296875,0.043609619140625,0.009429931640625
-0.12930297851562372,0.13240051269531294,0.08555603027343986,-9.155273437543932e-05,0.05284118652343775,0.005126953124999236
-0.33502197265625,0.339447021484375,0.131744384765625,0.016754150390625,0.053741455078125,-0.016510009765625
-0.30627441406250006,0.2639923095703084,0.12243652343750051,0.02981567382812541,0.04942321777343749,-0.018325805664062538
-0.239837646484375,0.20147705078125,0.169525146484375,0.0328369140625,0.049468994140625,-0.029083251953125
-0.209075927734375,0.1985626220703125,0.2454833984375,0.0260467529296875,0.0272674560546875,-0.021087646484375

-0.138214111328125,0.215972900390625,-0.023895263671875,-0.013214111328125,0.012603759765625,0.0107421875
-0.071075439453125,0.0473175048828125,0.094085693359375,0.0152130126953125,0.024017333984375,-0.00042724609375
-0.1658020019531271,0.1445617675781227,0.04055786132812832,-0.035705566406248,0.06027221679687437,0.011047363281250206
-0.2112884521484375,0.0883331298828125,0.07904052734375,0.013214111328125,0.0276641845703125,0.0121612548828125
-0.106719970703125,0.20599365234375,0.03057861328125,0.00054931640625,0.020172119140625,0.008575439453125
-0.0557098388671875,0.241241455078125,0.0856781005859375,-0.0017242431640625,0.02972412109375,0.0131988525390625
-0.138916015625,0.136962890625,0.08453369140625,0.014373779296875,0.043609619140625,0.009429931640625
-0.12930297851562372,0.13240051269531294,0.08555603027343986,-9.155273437543932e-05,0.05284118652343775,0.005126953124999236
-0.33502197265625,0.339447021484375,0.131744384765625,0.016754150390625,0.053741455078125,-0.016510009765625
-0.30627441406250006,0.2639923095703084,0.12243652343750051,0.02981567382812541,0.04942321777343749,-0.018325805664062538
-0.239837646484375,0.20147705078125,0.169525146484375,0.0328369140625,0.049468994140625,-0.029083251953125
-0.209075927734375,0.1985626220703125,0.2454833984375,0.0260467529296875,0.0272674560546875,-0.021087646484375
-0.22457885742187372,0.21569824218749864,0.2740783691406217,0.003540039062499688,0.022064208984374944,-0.015441894531249792
-0.2020111083984375,0.1239471435546875,0.1841278076171875,-0.0024261474609375,0.01544189453125,-0.007049560546875
-0.170623779296875,0.05462646484375,0.14813232421875,-0.014190673828125,0.01068115234375,0.005950927734375
-0.093048095703125,0.11187744140625,0.0957794189453125,-0.0142822265625,-0.0034027099609375,0.012115478515625
-0.07647705078125,0.099273681640625,0.021820068359375,-0.071075439453125,0.00213623046875,0.036956787109375
-0.13285827636718792,0.24383544921874284,0.0844268798828157,-0.050796508789061945,-0.026290893554687295,0.01863098144531213
-0.164703369140625,0.09381103515625,0.1170654296875,-0.04071044921875,-0.014434814453125,0.014251708984375
-0.14694213867187522,0.10418701171875258,0.06025695800781261,-0.0509490966796877,4.5776367187420094e-05,0.012893676757812465

-0.33502197265625,0.339447021484375,0.131744384765625,0.016754150390625,0.053741455078125,-0.016510009765625
-0.30627441406250006,0.2639923095703084,0.12243652343750051,0.02981567382812541,0.04942321777343749,-0.018325805664062538
-0.239837646484375,0.20147705078125,0.169525146484375,0.0328369140625,0.049468994140625,-0.029083251953125
-0.209075927734375,0.1985626220703125,0.2454833984375,0.0260467529296875,0.0272674560546875,-0.021087646484375
-0.22457885742187372,0.21569824218749864,0.2740783691406217,0.003540039062499688,0.022064208984374944,-0.015441894531249792
-0.2020111083984375,0.1239471435546875,0.1841278076171875,-0.0024261474609375,0.01544189453125,-0.007049560546875
-0.170623779296875,0.05462646484375,0.14813232421875,-0.014190673828125,0.01068115234375,0.005950927734375
-0.093048095703125,0.11187744140625,0.0957794189453125,-0.0142822265625,-0.0034027099609375,0.012115478515625
-0.07647705078125,0.099273681640625,0.021820068359375,-0.071075439453125,0.00213623046875,0.036956787109375
-0.13285827636718792,0.24383544921874284,0.0844268798828157,-0.050796508789061945,-0.026290893554687295,0.01863098144531213
-0.164703369140625,0.09381103515625,0.1170654296875,-0.04071044921875,-0.014434814453125,0.014251708984375
-0.14694213867187522,0.10418701171875258,0.06025695800781261,-0.0509490966796877,4.5776367187420094e-05,0.012893676757812465
-0.113128662109375,0.23663330078125,0.121124267578125,-0.0615234375,-0.0013427734375,0.011383056640625
-0.08978271484375,0.301025390625,0.2078399658203125,-0.0833282470703125,0.0274505615234375,0.0186004638671875
-0.12878417968750425,0.23138427734374614,0.22677612304687395,-0.05798339843749844,0.02798461914062444,0.015289306640624563
-0.210601806640625,0.1137542724609375,0.1935272216796875,-0.0247039794921875,0.010406494140625,0.0040130615234375
-0.29144287109375,0.13531494140625,-0.04071044921875,-0.037689208984375,0.01544189453125,0.01080322265625
-0.6937408447265625,0.4474334716796875,0.298126220703125,-0.0143585205078125,-0.0075531005859375,0.009674072265625
-0.42840576171875,0.038909912109375,0.24859619140625,-0.006591796875,0.023101806640625,0.017791748046875
-0.16574096679687253,0.2624511718750165,-0.24102783203125083,-0.006927490234375423,0.05413818359374717,0.022201538085937052

-0.07647705078125,0.099273681640625,0.021820068359375,-0.071075439453125,0.00213623046875,0.036956787109375
-0.13285827636718792,0.24383544921874284,0.0844268798828157,-0.050796508789061945,-0.026290893554687295,0.01863098144531213
-0.164703369140625,0.09381103515625,0.1170654296875,-0.04071044921875,-0.014434814453125,0.014251708984375
-0.14694213867187522,0.10418701171875258,0.06025695800781261,-0.0509490966796877,4.5776367187420094e-05,0.012893676757812465
-0.113128662109375,0.23663330078125,0.121124267578125,-0.0615234375,-0.0013427734375,0.011383056640625
-0.08978271484375,0.301025390625,0.2078399658203125,-0.0833282470703125,0.0274505615234375,0.0186004638671875
-0.12878417968750425,0.23138427734374614,0.22677612304687395,-0.05798339843749844,0.02798461914062444,0.015289306640624563
-0.210601806640625,0.1137542724609375,0.1935272216796875,-0.0247039794921875,0.010406494140625,0.0040130615234375
-0.29144287109375,0.13531494140625,-0.04071044921875,-0.037689208984375,0.01544189453125,0.01080322265625
-0.6937408447265625,0.4474334716796875,0.298126220703125,-0.0143585205078125,-0.0075531005859375,0.009674072265625
-0.42840576171875,0.038909912109375,0.24859619140625,-0.006591796875,0.023101806640625,0.017791748046875
-0.16574096679687253,0.2624511718750165,-0.24102783203125083,-0.006927490234375423,0.05413818359374717,0.022201538085937052
0.0352783203125,0.233551025390625,-0.1785888671875,-0.05908203125,0.015228271484375,-0.022796630859375
-0.33477783203125505,-0.10856628417968953,0.05125427246093691,-0.045700073242187056,0.013381958007812816,-0.02174377441406111
-0.18157958984375,0.0999755859375,0.02252197265625,-0.036041259765625,0.037445068359375,0.015655517578125
-0.0948944091796875,0.2187652587890625,0.0586700439453125,-0.060821533203125,0.0308990478515625,0.0244903564453125
-0.06759643554687715,0.3134765624999942,0.08007812500000162,-0.0194091796875002,0.027038574218749598,0.007415771484374834
-0.0943603515625,0.2253875732421875,0.0948486328125,-0.0191802978515625,0.0174713134765625,0.0036163330078125
-0.028533935546875,0.27191162109375,0.05908203125,-0.013031005859375,0.008056640625,0.00726318359375
-0.0894012451171875,0.2030181884765625,0.0265655517578125,0.0005340576171875,-0.00311279296875,0.0014495849609375

-0.29144287109375,0.13531494140625,-0.04071044921875,-0.037689208984375,0.01544189453125,0.01080322265625
-0.6937408447265625,0.4474334716796875,0.298126220703125,-0.0143585205078125,-0.0075531005859375,0.009674072265625
-0.42840576171875,0.038909912109375,0.24859619140625,-0.006591796875,0.023101806640625,0.017791748046875
-0.16574096679687253,0.2624511718750165,-0.24102783203125083,-0.006927490234375423,0.05413818359374717,0.022201538085937052
0.0352783203125,0.233551025390625,-0.1785888671875,-0.05908203125,0.015228271484375,-0.022796630859375
-0.33477783203125505,-0.10856628417968953,0.05125427246093691,-0.045700073242187056,0.013381958007812816,-0.02174377441406111
-0.18157958984375,0.0999755859375,0.02252197265625,-0.036041259765625,0.037445068359375,0.015655517578125
-0.0948944091796875,0.2187652587890625,0.0586700439453125,-0.060821533203125,0.0308990478515625,0.0244903564453125
-0.06759643554687715,0.3134765624999942,0.08007812500000162,-0.0194091796875002,0.027038574218749598,0.007415771484374834
-0.0943603515625,0.2253875732421875,0.0948486328125,-0.0191802978515625,0.0174713134765625,0.0036163330078125
-0.028533935546875,0.27191162109375,0.05908203125,-0.013031005859375,0.008056640625,0.00726318359375
-0.0894012451171875,0.2030181884765625,0.0265655517578125,0.0005340576171875,-0.00311279296875,0.0014495849609375
-0.129791259765625,0.17669677734375,0.01971435546875,0.00213623046875,-0.004638671875,-0.0032958984375
-0.22674560546875105,0.17817687988281358,0.0385131835937499,0.0017547607421875312,0.009475708007812634,-0.01058959960937512
-0.297088623046875,0.21722412109375,0.06536865234375,0.001495361328125,0.01446533203125,-0.01776123046875
-0.39379882812500044,0.16122436523437342,0.1067657470703135,0.009124755859374818,0.041473388671876235,-0.016677856445312354
-0.160919189453125,0.28985595703125,0.0892333984375,0.00579833984375,0.08221435546875,-0.033599853515625
-0.1529998779296866,0.20223999023437822,0.05789184570312659,0.02258300781250051,0.06301879882812361,-0.03570556640624967
-0.169769287109375,0.226165771484375,0.08056640625,0.0360107421875,0.040679931640625,-0.024505615234375
-0.12301635742187347,0.20674133300781197,0.08372497558593756,0.04707336425781292,0.034194946289062014,-0.01544189453124976

-0.06759643554687715,0.3134765624999942,0.08007812500000162,-0.0194091796875002,0.027038574218749598,0.007415771484374834
-0.0943603515625,0.2253875732421875,0.0948486328125,-0.0191802978515625,0.0174713134765625,0.0036163330078125
-0.028533935546875,0.27191162109375,0.05908203125,-0.013031005859375,0.008056640625,0.00726318359375
-0.0894012451171875,0.2030181884765625,0.0265655517578125,0.0005340576171875,-0.00311279296875,0.0014495849609375
-0.129791259765625,0.17669677734375,0.01971435546875,0.00213623046875,-0.004638671875,-0.0032958984375
-0.22674560546875105,0.17817687988281358,0.0385131835937499,0.0017547607421875312,0.009475708007812634,-0.01058959960937512
-0.297088623046875,0.21722412109375,0.06536865234375,0.001495361328125,0.01446533203125,-0.01776123046875
-0.39379882812500044,0.16122436523437342,0.1067657470703135,0.009124755859374818,0.041473388671876235,-0.016677856445312354
-0.160919189453125,0.28985595703125,0.0892333984375,0.00579833984375,0.08221435546875,-0.033599853515625
-0.1529998779296866,0.20223999023437822,0.05789184570312659,0.02258300781250051,0.06301879882812361,-0.03570556640624967
-0.169769287109375,0.226165771484375,0.08056640625,0.0360107421875,0.040679931640625,-0.024505615234375
-0.12301635742187347,0.20674133300781197,0.08372497558593756,0.04707336425781292,0.034194946289062014,-0.01544189453124976
-0.085693359375,0.160552978515625,0.098724365234375,0.042816162109375,0.0286865234375,-0.009765625
-0.06112670898437458,0.1183319091796883,0.12301635742187496,0.026718139648438003,0.027832031250000146,-0.001403808593750336
-0.085235595703125,0.08984375,0.107086181640625,0.0157470703125,0.01953125,0.00714111328125
-0.12583923339843772,0.05847167968749781,0.08607482910156185,0.012710571289062373,-0.00010681152343789291,0.01678466796875021
-0.09411621093750175,0.07650756835937521,0.054687500000000625,-0.03402709960937731,0.0069580078125005855,0.05294799804687511
-0.1152191162109367,0.10844421386718513,0.04971313476562567,-0.052947998046874716,0.01599121093749968,0.05279541015625014
-0.1318359375,0.156494140625,0.01507568359375,-0.054168701171875,0.020965576171875,0.048309326171875
-0.09948730468750003,0.1937561035156241,0.040512084960938395,-0.04666137695312442,0.016998291015624625,0.03823852539062456

-0.160919189453125,0.28985595703125,0.0892333984375,0.00579833984375,0.08221435546875,-0.033599853515625
-0.1529998779296866,0.20223999023437822,0.05789184570312659,0.02258300781250051,0.06301879882812361,-0.03570556640624967
-0.169769287109375,0.226165771484375,0.08056640625,0.0360107421875,0.040679931640625,-0.024505615234375
-0.12301635742187347,0.20674133300781197,0.08372497558593756,0.04707336425781292,0.034194946289062014,-0.01544189453124976
-0.085693359375,0.160552978515625,0.098724365234375,0.042816162109375,0.0286865234375,-0.009765625
-0.06112670898437458,0.1183319091796883,0.12301635742187496,0.026718139648438003,0.027832031250000146,-0.001403808593750336
-0.085235595703125,0.08984375,0.107086181640625,0.0157470703125,0.01953125,0.00714111328125
-0.12583923339843772,0.05847167968749781,0.08607482910156185,0.012710571289062373,-0.00010681152343789291,0.01678466796875021
-0.09411621093750175,0.07650756835937521,0.054687500000000625,-0.03402709960937731,0.0069580078125005855,0.05294799804687511
-0.1152191162109367,0.10844421386718513,0.04971313476562567,-0.052947998046874716,0.01599121093749968,0.05279541015625014
-0.1318359375,0.156494140625,0.01507568359375,-0.054168701171875,0.020965576171875,0.048309326171875
-0.09948730468750003,0.1937561035156241,0.040512084960938395,-0.04666137695312442,0.016998291015624625,0.03823852539062456
-0.046417236328125,0.209014892578125,0.105255126953125,-0.03497314453125,0.002410888671875,0.02386474609375
-0.06021118164062858,0.1954345703124964,0.1455383300781271,-0.03781127929687618,-0.013366699218749799,-0.001235961914062817
-0.12786865234375,0.193267822265625,0.176666259765625,-0.050140380859375,-0.007659912109375,-0.008148193359375
-0.1457824707031246,0.22851562499999928,0.18499755859375003,-0.0636444091796865,0.01226806640624922,-0.002761840820312671
-0.0960693359375,0.13555908203125,0.1513671875,0.0111083984375,-0.0174560546875,0.007110595703125
-0.21905517578124867,0.2742309570312528,0.13966369628905764,-0.0060424804687510564,-0.014938354492187432,0.00991821289062513
-0.27917480468749456,0.22799682617187875,0.022064208984367596,-0.028656005859378057,-0.015289306640624724,0.005767822265624626
-0.09602355957031669,0.23530578613281325,-0.016708374023441205,-0.04736328125000091,-0.0012969970703133162,0.0040893554687498

-0.09411621093750175,0.07650756835937521,0.054687500000000625,-0.03402709960937731,0.0069580078125005855,0.05294799804687511
-0.1152191162109367,0.10844421386718513,0.04971313476562567,-0.052947998046874716,0.01599121093749968,0.05279541015625014
-0.1318359375,0.156494140625,0.01507568359375,-0.054168701171875,0.020965576171875,0.048309326171875
-0.09948730468750003,0.1937561035156241,0.040512084960938395,-0.04666137695312442,0.016998291015624625,0.03823852539062456
-0.046417236328125,0.209014892578125,0.105255126953125,-0.03497314453125,0.002410888671875,0.02386474609375
-0.06021118164062858,0.1954345703124964,0.1455383300781271,-0.03781127929687618,-0.013366699218749799,-0.001235961914062817
-0.12786865234375,0.193267822265625,0.176666259765625,-0.050140380859375,-0.007659912109375,-0.008148193359375
-0.1457824707031246,0.22851562499999928,0.18499755859375003,-0.0636444091796865,0.01226806640624922,-0.002761840820312671
-0.0960693359375,0.13555908203125,0.1513671875,0.0111083984375,-0.0174560546875,0.007110595703125
-0.21905517578124867,0.2742309570312528,0.13966369628905764,-0.0060424804687510564,-0.014938354492187432,0.00991821289062513
-0.27917480468749456,0.22799682617187875,0.022064208984367596,-0.028656005859378057,-0.015289306640624724,0.005767822265624626
-0.09602355957031669,0.23530578613281325,-0.016708374023441205,-0.04736328125000091,-0.0012969970703133162,0.0040893554687498
-0.23101806640625,0.30133056640625,0.010040283203125,-0.028594970703125,0.016754150390625,0.015716552734375
-0.15827941894532738,0.34371948242186945,0.04052734374999887,-0.009399414062497594,0.00822448730468598,0.007125854492187058
-0.41363525390625,0.3284912109375,0.082427978515625,0.033447265625,-0.0185546875,0.000396728515625
-0.3075561523437484,0.012252807617188185,0.009796142578122002,0.02182006835937409,0.0047760009765635165,-0.001998901367186982
-0.13702392578125,0.1746826171875,0.03759765625,-0.03314208984375,0.024139404296875,0.008087158203125
-0.17193603515624895,0.16876220703124947,0.04234313964843767,-0.026153564453125368,0.01824951171875018,0.009353637695312491
-0.189788818359375,0.175537109375,0.056182861328125,-0.01336669921875,0.016632080078125,0.008575439453125
-0.16888427734374836,0.18627929687500042,0.07643127441406347,-0.009307861328124903,0.02792358398437528,0.008743286132812465

-0.0960693359375,0.13555908203125,0.1513671875,0.0111083984375,-0.0174560546875,0.007110595703125
-0.21905517578124867,0.2742309570312528,0.13966369628905764,-0.0060424804687510564,-0.014938354492187432,0.00991821289062513
-0.27917480468749456,0.22799682617187875,0.022064208984367596,-0.028656005859378057,-0.015289306640624724,0.005767822265624626
-0.09602355957031669,0.23530578613281325,-0.016708374023441205,-0.04736328125000091,-0.0012969970703133162,0.0040893554687498
-0.23101806640625,0.30133056640625,0.010040283203125,-0.028594970703125,0.016754150390625,0.015716552734375
-0.15827941894532738,0.34371948242186945,0.04052734374999887,-0.009399414062497594,0.00822448730468598,0.007125854492187058
-0.41363525390625,0.3284912109375,0.082427978515625,0.033447265625,-0.0185546875,0.000396728515625
-0.3075561523437484,0.012252807617188185,0.009796142578122002,0.02182006835937409,0.0047760009765635165,-0.001998901367186982
-0.13702392578125,0.1746826171875,0.03759765625,-0.03314208984375,0.024139404296875,0.008087158203125
-0.17193603515624895,0.16876220703124947,0.04234313964843767,-0.026153564453125368,0.01824951171875018,0.009353637695312491
-0.189788818359375,0.175537109375,0.056182861328125,-0.01336669921875,0.016632080078125,0.008575439453125
-0.16888427734374836,0.18627929687500042,0.07643127441406347,-0.009307861328124903,0.02792358398437528,0.008743286132812465
-0.17584228515625,0.161468505859375,0.06585693359375,-0.015228271484375,0.049835205078125,0.0184326171875
-0.12042236328125008,0.17584228515625397,0.08753967285156955,0.005828857421873342,0.04331970214843758,0.012649536132812573
-0.120269775390625,0.130523681640625,0.02337646484375,0.02313232421875,0.02984619140625,0.015655517578125
-0.06758117675781214,0.17858886718750144,0.061706542968749965,0.0037994384765622207,0.026687622070312486,0.02096557617187499
-0.1927490234375,0.136688232421875,0.05230712890625,0.004791259765625,0.0755615234375,-0.002227783203125
-0.2275695800781279,0.12646484375000244,0.07896423339843825,0.020217895507812465,0.07551574707031279,-0.0049285888671874705
-0.32891845703125,0.24041748046875,0.067779541015625,0.005767822265625,0.06890869140625,-0.013031005859375
-0.2557220458984386,0.22767639160156009,0.13656616210937425,0.010711669921874632,0.06588745117187564,-0.014984130859374837

-0.13702392578125,0.1746826171875,0.03759765625,-0.03314208984375,0.024139404296875,0.008087158203125
-0.17193603515624895,0.16876220703124947,0.04234313964843767,-0.026153564453125368,0.01824951171875018,0.009353637695312491
-0.189788818359375,0.175537109375,0.056182861328125,-0.01336669921875,0.016632080078125,0.008575439453125
-0.16888427734374836,0.18627929687500042,0.07643127441406347,-0.009307861328124903,0.02792358398437528,0.008743286132812465
-0.17584228515625,0.161468505859375,0.06585693359375,-0.015228271484375,0.049835205078125,0.0184326171875
-0.12042236328125008,0.17584228515625397,0.08753967285156955,0.005828857421873342,0.04331970214843758,0.012649536132812573
-0.120269775390625,0.130523681640625,0.02337646484375,0.02313232421875,0.02984619140625,0.015655517578125
-0.06758117675781214,0.17858886718750144,0.061706542968749965,0.0037994384765622207,0.026687622070312486,0.02096557617187499
-0.1927490234375,0.136688232421875,0.05230712890625,0.004791259765625,0.0755615234375,-0.002227783203125
-0.2275695800781279,0.12646484375000244,0.07896423339843825,0.020217895507812465,0.07551574707031279,-0.0049285888671874705
-0.32891845703125,0.24041748046875,0.067779541015625,0.005767822265625,0.06890869140625,-0.013031005859375
-0.2557220458984386,0.22767639160156009,0.13656616210937425,0.010711669921874632,0.06588745117187564,-0.014984130859374837
-0.232147216796875,0.22650146484375,0.168701171875,0.01629638671875,0.048736572265625,-0.014617919921875
-0.19863891601562275,0.24754333496093883,0.15606689453124917,0.0041503906249996374,0.045684814453124785,-0.010253906249999794
-0.127197265625,0.248291015625,0.13787841796875,0.007476806640625,0.01910400390625,-0.002166748046875
-0.14070129394531203,0.12020874023438002,0.11842346191406315,0.012161254882812639,-0.001922607421874496,-0.0011749267578125785
-0.097320556640625,0.066497802734375,0.101776123046875,-0.042724609375,-0.002166748046875,0.023406982421875
-0.10302734375000226,0.10580444335937775,0.08676147460937572,-0.03759765624999986,-0.016311645507812656,0.02584838867187501
-0.130767822265625,0.145416259765625,0.08929443359375,-0.04290771484375,-0.011810302734375,0.0267333984375
-0.15260314941406358,0.13989257812499892,0.09510803222656315,-0.047607421875000056,-0.010238647460937465,0.02992248535156267

-0.1927490234375,0.136688232421875,0.05230712890625,0.004791259765625,0.0755615234375,-0.002227783203125
-0.2275695800781279,0.12646484375000244,0.07896423339843825,0.020217895507812465,0.07551574707031279,-0.0049285888671874705
-0.32891845703125,0.24041748046875,0.067779541015625,0.005767822265625,0.06890869140625,-0.013031005859375
-0.2557220458984386,0.22767639160156009,0.13656616210937425,0.010711669921874632,0.06588745117187564,-0.014984130859374837
-0.232147216796875,0.22650146484375,0.168701171875,0.01629638671875,0.048736572265625,-0.014617919921875
-0.19863891601562275,0.24754333496093883,0.15606689453124917,0.0041503906249996374,0.045684814453124785,-0.010253906249999794
-0.127197265625,0.248291015625,0.13787841796875,0.007476806640625,0.01910400390625,-0.002166748046875
-0.14070129394531203,0.12020874023438002,0.11842346191406315,0.012161254882812639,-0.001922607421874496,-0.0011749267578125785
-0.097320556640625,0.066497802734375,0.101776123046875,-0.042724609375,-0.002166748046875,0.023406982421875
-0.10302734375000226,0.10580444335937775,0.08676147460937572,-0.03759765624999986,-0.016311645507812656,0.02584838867187501
-0.130767822265625,0.145416259765625,0.08929443359375,-0.04290771484375,-0.011810302734375,0.0267333984375
-0.15260314941406358,0.13989257812499892,0.09510803222656315,-0.047607421875000056,-0.010238647460937465,0.02992248535156267
-0.18487548828125,0.115478515625,0.110687255859375,-0.04925537109375,-0.0084228515625,0.034149169921875
-0.16914367675781383,0.18611145019530917,0.13932800292968683,-0.06063842773437459,-0.0023498535156252333,0.03466796875000013
-0.134674072265625,0.296722412109375,0.13970947265625,-0.06878662109375,0.00238037109375,0.030364990234375
-0.09501647949218778,0.34425354003906056,0.1316833496093768,-0.04611206054687412,-0.005966186523437925,0.016693115234374653
-0.2686767578125,0.124755859375,-0.02618408203125,0.03741455078125,-0.031768798828125,-0.000823974609375
-0.3708038330078094,0.062561035156253,0.017303466796870986,0.02160644531250108,-0.018371582031251082,0.00022888183593717734
-0.314483642578125,-0.014495849609375,0.152862548828125,-0.02392578125,0.029693603515625,0.007904052734375
-0.13188171386718336,0.2486724853515673,-0.040267944335939665,-0.006729125976561608,0.017135620117187108,0.018646240234375118

-0.097320556640625,0.066497802734375,0.101776123046875,-0.042724609375,-0.002166748046875,0.023406982421875
-0.10302734375000226,0.10580444335937775,0.08676147460937572,-0.03759765624999986,-0.016311645507812656,0.02584838867187501
-0.130767822265625,0.145416259765625,0.08929443359375,-0.04290771484375,-0.011810302734375,0.0267333984375
-0.15260314941406358,0.13989257812499892,0.09510803222656315,-0.047607421875000056,-0.010238647460937465,0.02992248535156267
-0.18487548828125,0.115478515625,0.110687255859375,-0.04925537109375,-0.0084228515625,0.034149169921875
-0.16914367675781383,0.18611145019530917,0.13932800292968683,-0.06063842773437459,-0.0023498535156252333,0.03466796875000013
-0.134674072265625,0.296722412109375,0.13970947265625,-0.06878662109375,0.00238037109375,0.030364990234375
-0.09501647949218778,0.34425354003906056,0.1316833496093768,-0.04611206054687412,-0.005966186523437925,0.016693115234374653
-0.2686767578125,0.124755859375,-0.02618408203125,0.03741455078125,-0.031768798828125,-0.000823974609375
-0.3708038330078094,0.062561035156253,0.017303466796870986,0.02160644531250108,-0.018371582031251082,0.00022888183593717734
-0.314483642578125,-0.014495849609375,0.152862548828125,-0.02392578125,0.029693603515625,0.007904052734375
-0.13188171386718336,0.2486724853515673,-0.040267944335939665,-0.006729125976561608,0.017135620117187108,0.018646240234375118
-0.0780029296875,0.33758544921875,-0.102294921875,0.010467529296875,0.009765625,0.015716552734375
-0.10626220703125429,0.22109985351562134,0.013442993164065425,-0.009857177734375715,-0.009414672851562486,-0.002609252929687649
-0.25665283203125,0.1212158203125,0.1094970703125,-0.022491455078125,-0.016021728515625,-0.0093994140625
-0.24081420898437614,0.11341857910156124,0.12532043457031186,-0.017013549804687323,-0.006332397460938029,-0.004043579101562741
-0.1505126953125,0.174713134765625,0.0611572265625,-0.01263427734375,0.0172119140625,0.000946044921875
-0.13806152343750008,0.17700195312499933,0.0727691650390632,-0.01013183593750002,0.013977050781249854,0.0010681152343749512
-0.150177001953125,0.138916015625,0.110809326171875,-0.01861572265625,0.01739501953125,0.0032958984375
-0.13421630859375044,0.12399291992187587,0.10104370117187446,-0.01786804199218734,0.023895263671874663,0.00552368164062499

-0.2686767578125,0.124755859375,-0.02618408203125,0.03741455078125,-0.031768798828125,-0.000823974609375
-0.3708038330078094,0.062561035156253,0.017303466796870986,0.02160644531250108,-0.018371582031251082,0.00022888183593717734
-0.314483642578125,-0.014495849609375,0.152862548828125,-0.02392578125,0.029693603515625,0.007904052734375
-0.13188171386718336,0.2486724853515673,-0.040267944335939665,-0.006729125976561608,0.017135620117187108,0.018646240234375118
-0.0780029296875,0.33758544921875,-0.102294921875,0.010467529296875,0.009765625,0.015716552734375
-0.10626220703125429,0.22109985351562134,0.013442993164065425,-0.009857177734375715,-0.009414672851562486,-0.002609252929687649
-0.25665283203125,0.1212158203125,0.1094970703125,-0.022491455078125,-0.016021728515625,-0.0093994140625
-0.24081420898437614,0.11341857910156124,0.12532043457031186,-0.017013549804687323,-0.006332397460938029,-0.004043579101562741
-0.1505126953125,0.174713134765625,0.0611572265625,-0.01263427734375,0.0172119140625,0.000946044921875
-0.13806152343750008,0.17700195312499933,0.0727691650390632,-0.01013183593750002,0.013977050781249854,0.0010681152343749512
-0.150177001953125,0.138916015625,0.110809326171875,-0.01861572265625,0.01739501953125,0.0032958984375
-0.13421630859375044,0.12399291992187587,0.10104370117187446,-0.01786804199218734,0.023895263671874663,0.00552368164062499
-0.101776123046875,0.1357421875,0.06298828125,-0.020477294921875,0.039398193359375,0.004425048828125
-0.06221008300781347,0.16419982910156175,0.07305908203125347,-0.008285522460935838,0.04779052734374966,-0.003128051757812741
-0.08905029296875,0.152099609375,0.04766845703125,0.023101806640625,0.0364990234375,-0.007720947265625
-0.18492126464844091,0.11450195312499876,0.031021118164060307,0.06500244140625047,0.0022888183593749024,-0.008316040039062177
-0.05166625976562609,0.18289184570312866,0.08514404296875139,0.012542724609374604,0.04794311523437478,0.010559082031249566
-0.12142944335936814,0.253097534179683,0.13397216796874767,0.01576232910156209,0.044921874999999806,0.003067016601562882
-0.2802734375,0.47943115234375,0.172760009765625,0.017333984375,0.05389404296875,-0.027374267578125
-0.3371582031250005,0.1591644287109389,0.11247253417968792,0.043991088867186834,0.06150817871093678,-0.0263061523437491

-0.1505126953125,0.174713134765625,0.0611572265625,-0.01263427734375,0.0172119140625,0.000946044921875
-0.13806152343750008,0.17700195312499933,0.0727691650390632,-0.01013183593750002,0.013977050781249854,0.0010681152343749512
-0.150177001953125,0.138916015625,0.110809326171875,-0.01861572265625,0.01739501953125,0.0032958984375
-0.13421630859375044,0.12399291992187587,0.10104370117187446,-0.01786804199218734,0.023895263671874663,0.00552368164062499
-0.101776123046875,0.1357421875,0.06298828125,-0.020477294921875,0.039398193359375,0.004425048828125
-0.06221008300781347,0.16419982910156175,0.07305908203125347,-0.008285522460935838,0.04779052734374966,-0.003128051757812741
-0.08905029296875,0.152099609375,0.04766845703125,0.023101806640625,0.0364990234375,-0.007720947265625
-0.18492126464844091,0.11450195312499876,0.031021118164060307,0.06500244140625047,0.0022888183593749024,-0.008316040039062177
-0.05166625976562609,0.18289184570312866,0.08514404296875139,0.012542724609374604,0.04794311523437478,0.010559082031249566
-0.12142944335936814,0.253097534179683,0.13397216796874767,0.01576232910156209,0.044921874999999806,0.003067016601562882
-0.2802734375,0.47943115234375,0.172760009765625,0.017333984375,0.05389404296875,-0.027374267578125
-0.3371582031250005,0.1591644287109389,0.11247253417968792,0.043991088867186834,0.06150817871093678,-0.0263061523437491
-0.306427001953125,0.1964111328125,0.160888671875,0.017120361328125,0.04522705078125,-0.01812744140625
-0.20043945312499414,0.1951293945312544,0.1622467041015596,-0.017456054687500153,0.02900695800781187,-0.01321411132812473
-0.1419677734375,0.20782470703125,0.13189697265625,-0.0128173828125,0.0048828125,-0.005218505859375
-0.1384582519531253,0.10966491699218349,0.0986022949218742,-0.00593566894531234,-0.016174316406250652,0.0018157958984376815
-0.0950927734375,0.14166259765625,0.0928955078125,-0.023284912109375,-0.02764892578125,0.02630615234375
-0.17901611328125133,0.12811279296874617,0.07893371582031179,-0.011184692382813295,-0.018615722656249785,0.011596679687499663
-0.18841552734374895,0.09939575195312673,0.059143066406251305,-0.017547607421876197,-0.00949096679687417,0.007324218750000033
-0.15800476074218867,0.13850402832031103,0.09500122070312345,-0.03817749023437413,0.0020294189453121396,0.008026123046875033

-0.05166625976562609,0.18289184570312866,0.08514404296875139,0.012542724609374604,0.04794311523437478,0.010559082031249566
-0.12142944335936814,0.253097534179683,0.13397216796874767,0.01576232910156209,0.044921874999999806,0.003067016601562882
-0.2802734375,0.47943115234375,0.172760009765625,0.017333984375,0.05389404296875,-0.027374267578125
-0.3371582031250005,0.1591644287109389,0.11247253417968792,0.043991088867186834,0.06150817871093678,-0.0263061523437491
-0.306427001953125,0.1964111328125,0.160888671875,0.017120361328125,0.04522705078125,-0.01812744140625
-0.20043945312499414,0.1951293945312544,0.1622467041015596,-0.017456054687500153,0.02900695800781187,-0.01321411132812473
-0.1419677734375,0.20782470703125,0.13189697265625,-0.0128173828125,0.0048828125,-0.005218505859375
-0.1384582519531253,0.10966491699218349,0.0986022949218742,-0.00593566894531234,-0.016174316406250652,0.0018157958984376815
-0.0950927734375,0.14166259765625,0.0928955078125,-0.023284912109375,-0.02764892578125,0.02630615234375
-0.17901611328125133,0.12811279296874617,0.07893371582031179,-0.011184692382813295,-0.018615722656249785,0.011596679687499663
-0.18841552734374895,0.09939575195312673,0.059143066406251305,-0.017547607421876197,-0.00949096679687417,0.007324218750000033
-0.15800476074218867,0.13850402832031103,0.09500122070312345,-0.03817749023437413,0.0020294189453121396,0.008026123046875033
-0.138458251953125,0.16357421875,0.13970947265625,-0.05401611328125,0.010406494140625,0.0084228515625
-0.0962982177734366,0.14356994628906344,0.1370849609374992,-0.046966552734374736,0.009765624999999898,0.007232666015624957
-0.06304931640625,0.1597900390625,0.11474609375,-0.030670166015625,0.006195068359375,0.004425048828125
-0.09074401855468882,0.13662719726562414,0.17924499511718855,-0.018432617187499722,-0.005371093750000212,0.00024414062499998916
-0.125823974609375,0.1702880859375,0.11407470703125,-0.02972412109375,-0.000823974609375,0.00372314453125
-0.13464355468749828,0.1275329589843756,0.1182556152343715,-0.011962890624999539,-0.017974853515625135,-0.007186889648437861
-0.168212890625,0.099090576171875,0.062225341796875,-0.002288818359375,-0.01727294921875,-0.007659912109375
-0.17773437500000416,0.22615051269531047,-0.008804321289067874,0.004104614257812302,-0.027450561523437552,-0.0033721923828127468

-0.0950927734375,0.14166259765625,0.0928955078125,-0.023284912109375,-0.02764892578125,0.02630615234375
-0.17901611328125133,0.12811279296874617,0.07893371582031179,-0.011184692382813295,-0.018615722656249785,0.011596679687499663
-0.18841552734374895,0.09939575195312673,0.059143066406251305,-0.017547607421876197,-0.00949096679687417,0.007324218750000033
-0.15800476074218867,0.13850402832031103,0.09500122070312345,-0.03817749023437413,0.0020294189453121396,0.008026123046875033
-0.138458251953125,0.16357421875,0.13970947265625,-0.05401611328125,0.010406494140625,0.0084228515625
-0.0962982177734366,0.14356994628906344,0.1370849609374992,-0.046966552734374736,0.009765624999999898,0.007232666015624957
-0.06304931640625,0.1597900390625,0.11474609375,-0.030670166015625,0.006195068359375,0.004425048828125
-0.09074401855468882,0.13662719726562414,0.17924499511718855,-0.018432617187499722,-0.005371093750000212,0.00024414062499998916
-0.125823974609375,0.1702880859375,0.11407470703125,-0.02972412109375,-0.000823974609375,0.00372314453125
-0.13464355468749828,0.1275329589843756,0.1182556152343715,-0.011962890624999539,-0.017974853515625135,-0.007186889648437861
-0.168212890625,0.099090576171875,0.062225341796875,-0.002288818359375,-0.01727294921875,-0.007659912109375
-0.17773437500000416,0.22615051269531047,-0.008804321289067874,0.004104614257812302,-0.027450561523437552,-0.0033721923828127468
-0.2633056640625112,0.22155761718749725,0.04504394531249423,-0.03085327148437526,-0.005676269531247393,-0.00039672851562356885
-0.1990051269531347,0.20663452148437525,0.015487670898436761,-0.033187866210937424,0.023483276367187177,0.010131835937500418
-0.1068115234375,0.3468017578125,0.026336669921875,-0.033233642578125,0.017913818359375,0.00592041015625
-0.44099426269532077,0.38020324707031516,0.3201141357422006,-0.006362915039060427,-0.018157958984375076,0.006332397460938137
-0.06689453125,0.1187744140625,0.0904541015625,0.01287841796875,-0.0084228515625,-0.01422119140625
-0.17182922363281455,0.09725952148437549,0.12103271484375101,0.008209228515624625,0.005630493164062942,-0.005401611328124625
-0.1925048828125,0.099945068359375,0.051727294921875,0.011322021484375,0.015045166015625,0.00384521484375
-0.22430419921875178,0.056701660156249986,0.06433105468749564,0.026870727539062948,0.0011596679687495828,0.011352539062500206

-0.125823974609375,0.1702880859375,0.11407470703125,-0.02972412109375,-0.000823974609375,0.00372314453125
-0.13464355468749828,0.1275329589843756,0.1182556152343715,-0.011962890624999539,-0.017974853515625135,-0.007186889648437861
-0.168212890625,0.099090576171875,0.062225341796875,-0.002288818359375,-0.01727294921875,-0.007659912109375
-0.17773437500000416,0.22615051269531047,-0.008804321289067874,0.004104614257812302,-0.027450561523437552,-0.0033721923828127468
-0.2633056640625112,0.22155761718749725,0.04504394531249423,-0.03085327148437526,-0.005676269531247393,-0.00039672851562356885
-0.1990051269531347,0.20663452148437525,0.015487670898436761,-0.033187866210937424,0.023483276367187177,0.010131835937500418
-0.1068115234375,0.3468017578125,0.026336669921875,-0.033233642578125,0.017913818359375,0.00592041015625
-0.44099426269532077,0.38020324707031516,0.3201141357422006,-0.006362915039060427,-0.018157958984375076,0.006332397460938137
-0.06689453125,0.1187744140625,0.0904541015625,0.01287841796875,-0.0084228515625,-0.01422119140625
-0.17182922363281455,0.09725952148437549,0.12103271484375101,0.008209228515624625,0.005630493164062942,-0.005401611328124625
-0.1925048828125,0.099945068359375,0.051727294921875,0.011322021484375,0.015045166015625,0.00384521484375
-0.22430419921875178,0.056701660156249986,0.06433105468749564,0.026870727539062948,0.0011596679687495828,0.011352539062500206
-0.100555419921875,0.171722412109375,0.0225830078125,0.02288818359375,0.0167236328125,0.0191650390625
-0.1060180664062518,0.2541198730468707,0.1412963867187544,0.04052734375000016,0.016143798828124896,0.004013061523437204
-0.2088012695312465,0.07760620117187196,0.10504150390624425,0.024688720703122516,0.030059814453125444,0.0024719238281258296
-0.11698913574219216,0.05169677734374715,0.016342163085939634,0.009201049804686993,0.034378051757812486,0.012130737304687297
-0.284271240234375,0.1326904296875,0.10491943359375,0.045318603515625,0.06988525390625,-0.034393310546875
-0.2217102050781206,0.17012023925781722,0.06620788574218658,0.04071044921874889,0.05563354492187419,-0.027862548828125715
-0.247650146484375,0.249725341796875,0.164642333984375,0.02239990234375,0.03717041015625,-0.032501220703125
-0.2680816650390589,0.292648315429688,0.2099761962890623,0.011016845703124398,0.03944396972656253,-0.02764892578125001

-0.06689453125,0.1187744140625,0.0904541015625,0.01287841796875,-0.0084228515625,-0.01422119140625
-0.17182922363281455,0.09725952148437549,0.12103271484375101,0.008209228515624625,0.005630493164062942,-0.005401611328124625
-0.1925048828125,0.099945068359375,0.051727294921875,0.011322021484375,0.015045166015625,0.00384521484375
-0.22430419921875178,0.056701660156249986,0.06433105468749564,0.026870727539062948,0.0011596679687495828,0.011352539062500206
-0.100555419921875,0.171722412109375,0.0225830078125,0.02288818359375,0.0167236328125,0.0191650390625
-0.1060180664062518,0.2541198730468707,0.1412963867187544,0.04052734375000016,0.016143798828124896,0.004013061523437204
-0.2088012695312465,0.07760620117187196,0.10504150390624425,0.024688720703122516,0.030059814453125444,0.0024719238281258296
-0.11698913574219216,0.05169677734374715,0.016342163085939634,0.009201049804686993,0.034378051757812486,0.012130737304687297
-0.284271240234375,0.1326904296875,0.10491943359375,0.045318603515625,0.06988525390625,-0.034393310546875
-0.2217102050781206,0.17012023925781722,0.06620788574218658,0.04071044921874889,0.05563354492187419,-0.027862548828125715
-0.247650146484375,0.249725341796875,0.164642333984375,0.02239990234375,0.03717041015625,-0.032501220703125
-0.2680816650390589,0.292648315429688,0.2099761962890623,0.011016845703124398,0.03944396972656253,-0.02764892578125001
-0.198974609375,0.287811279296875,0.168914794921875,0.004852294921875,0.02679443359375,-0.038909912109375
-0.12646484374999667,0.22837829589843434,0.11016845703124989,0.013168334960937616,0.003890991210936597,-0.039611816406249764
-0.095428466796875,0.13690185546875,0.12353515625,0.01263427734375,-0.02081298828125,-0.029296875
-0.09893798828124965,0.051452636718747266,0.14605712890625056,0.004333496093749566,-0.031219482421875232,-0.019012451171874625
-0.026824951171878463,0.055969238281249216,0.01803588867187311,-0.0409545898437493,-0.02551269531249998,0.02597045898437525
-0.09344482421874645,0.056655883789061376,0.014953613281249209,-0.024810791015625916,-0.024520874023437514,0.028976440429687417
-0.19415283203125,0.151123046875,0.03057861328125,0.002685546875,-0.030364990234375,0.0328369140625
-0.20156860351562317,0.20269775390624872,0.06375122070312779,0.00871276855468733,-0.0398712158203125,0.032760620117187195

-0.284271240234375,0.1326904296875,0.10491943359375,0.045318603515625,0.06988525390625,-0.034393310546875
-0.2217102050781206,0.17012023925781722,0.06620788574218658,0.04071044921874889,0.05563354492187419,-0.027862548828125715
-0.247650146484375,0.249725341796875,0.164642333984375,0.02239990234375,0.03717041015625,-0.032501220703125
-0.2680816650390589,0.292648315429688,0.2099761962890623,0.011016845703124398,0.03944396972656253,-0.02764892578125001
-0.198974609375,0.287811279296875,0.168914794921875,0.004852294921875,0.02679443359375,-0.038909912109375
-0.12646484374999667,0.22837829589843434,0.11016845703124989,0.013168334960937616,0.003890991210936597,-0.039611816406249764
