acc.x,acc.y,acc.z,gyro.x,gyro.y,gyro.z
-0.222686767578125,0.11724853515625,0.04888916015625,0.00567626953125,0.002960205078125,-0.00244140625
-0.2107086181640625,0.1151123046875,0.0495147705078125,0.0051727294921875,0.00384521484375,-0.003021240234375
-0.21575927734375,0.110321044921875,0.056243896484375,0.004425048828125,0.004547119140625,-0.005157470703125
-0.2108917236328125,0.12403869628906251,0.0596160888671875,0.005081176757812499,0.004364013671874999,-0.0065155029296875
-0.21685791015625,0.140167236328125,0.066070556640625,0.002532958984375,0.00286865234375,-0.006866455078125
-0.1949005126953125,0.1466217041015625,0.0680389404296875,0.0024871826171875,0.003204345703125,-0.010498046875
-0.199493408203125,0.14321899414062503,0.055938720703125,0.0042114257812499965,0.005676269531249997,-0.015228271484375003
-0.19921875,0.1538543701171875,0.056854248046874986,-0.0007629394531250026,0.004989624023437498,-0.01715087890625
-0.19793701171875,0.168487548828125,0.08062744140625,-0.00439453125,0.0072021484375,-0.02099609375
-0.1745452880859375,0.164794921875,0.0948638916015625,0.0007171630859374991,0.007354736328125,-0.02325439453125
-0.17303466796875,0.13568115234375,0.073577880859375,0.01409912109375,0.007568359375,-0.018218994140625
-0.1620941162109375,0.1312255859375,0.0643157958984375,0.01104736328125,0.0041656494140625,-0.01348876953125
-0.15380859375,0.165008544921875,0.069732666015625,0.004608154296874995,0.0004882812499999926,-0.009155273437500007
-0.1537322998046875,0.165740966796875,0.092864990234375,0.0069580078125,-0.0040435791015625,-0.0107269287109375
-0.143707275390625,0.1641845703125,0.125,0.01239013671875,-0.0008544921875,-0.010467529296875
-0.17578125,0.1727142333984375,0.13885498046875,0.015106201171875,-0.0019989013671875,-0.0092010498046875
-0.16400146484375,0.18475341796875,0.09136962890625,0.0125732421875,-0.00799560546875,0.005401611328125
-0.18121337890625006,0.11161804199218728,0.11279296875000006,0.023391723632812528,-0.015106201171875031,0.011703491210937524
-0.2059326171875,0.074981689453125,0.110809326171875,0.018829345703125,-0.019805908203125,0.019317626953125
-0.17678833007812497,0.0776214599609375,0.061035156249999965,-0.02275085449218753,-0.0161285400390625,0.025741577148437503

-0.19793701171875,0.168487548828125,0.08062744140625,-0.00439453125,0.0072021484375,-0.02099609375
-0.1745452880859375,0.164794921875,0.0948638916015625,0.0007171630859374991,0.007354736328125,-0.02325439453125
-0.17303466796875,0.13568115234375,0.073577880859375,0.01409912109375,0.007568359375,-0.018218994140625
-0.1620941162109375,0.1312255859375,0.0643157958984375,0.01104736328125,0.0041656494140625,-0.01348876953125
-0.15380859375,0.165008544921875,0.069732666015625,0.004608154296874995,0.0004882812499999926,-0.009155273437500007
-0.1537322998046875,0.165740966796875,0.092864990234375,0.0069580078125,-0.0040435791015625,-0.0107269287109375
-0.143707275390625,0.1641845703125,0.125,0.01239013671875,-0.0008544921875,-0.010467529296875
-0.17578125,0.1727142333984375,0.13885498046875,0.015106201171875,-0.0019989013671875,-0.0092010498046875
-0.16400146484375,0.18475341796875,0.09136962890625,0.0125732421875,-0.00799560546875,0.005401611328125
-0.18121337890625006,0.11161804199218728,0.11279296875000006,0.023391723632812528,-0.015106201171875031,0.011703491210937524
-0.2059326171875,0.074981689453125,0.110809326171875,0.018829345703125,-0.019805908203125,0.019317626953125
-0.17678833007812497,0.0776214599609375,0.061035156249999965,-0.02275085449218753,-0.0161285400390625,0.025741577148437503
-0.121185302734375,0.084808349609375,-0.03704833984375,-0.061309814453125,-0.011260986328125,0.03057861328125
-0.0182647705078125,0.0243682861328125,-0.008560180664062503,-0.0698089599609375,-0.014739990234375,0.0363616943359375
-0.3944091796875,0.47991943359375,0.04541015625,-0.003631591796875,-0.00140380859375,0.01031494140625
-0.2376861572265615,-0.0900726318359386,0.004638671874999098,-0.043090820312500666,0.022277832031249868,0.014465332031250288
-0.31317138671874933,0.16937255859374814,-0.08721923828124847,-0.00262451171874941,-0.0016479492187500874,0.013488769531249946
-0.2864227294921875,-0.0026702880859375,-0.0261993408203125,0.0086669921875,-0.0270538330078125,0.0335540771484375
-0.328460693359375,0.12811279296875,-0.0579833984375,-0.030975341796875,-0.0205078125,0.0506591796875
-0.3191070556640625,0.3454437255859375,0.05731201171875,0.0652923583984375,-0.039031982421875,0.004119873046875

-0.16400146484375,0.18475341796875,0.09136962890625,0.0125732421875,-0.00799560546875,0.005401611328125
-0.18121337890625006,0.11161804199218728,0.11279296875000006,0.023391723632812528,-0.015106201171875031,0.011703491210937524
-0.2059326171875,0.074981689453125,0.110809326171875,0.018829345703125,-0.019805908203125,0.019317626953125
-0.17678833007812497,0.0776214599609375,0.061035156249999965,-0.02275085449218753,-0.0161285400390625,0.025741577148437503
-0.121185302734375,0.084808349609375,-0.03704833984375,-0.061309814453125,-0.011260986328125,0.03057861328125
-0.0182647705078125,0.0243682861328125,-0.008560180664062503,-0.0698089599609375,-0.014739990234375,0.0363616943359375
-0.3944091796875,0.47991943359375,0.04541015625,-0.003631591796875,-0.00140380859375,0.01031494140625
-0.2376861572265615,-0.0900726318359386,0.004638671874999098,-0.043090820312500666,0.022277832031249868,0.014465332031250288
-0.31317138671874933,0.16937255859374814,-0.08721923828124847,-0.00262451171874941,-0.0016479492187500874,0.013488769531249946
-0.2864227294921875,-0.0026702880859375,-0.0261993408203125,0.0086669921875,-0.0270538330078125,0.0335540771484375
-0.328460693359375,0.12811279296875,-0.0579833984375,-0.030975341796875,-0.0205078125,0.0506591796875
-0.3191070556640625,0.3454437255859375,0.05731201171875,0.0652923583984375,-0.039031982421875,0.004119873046875
-0.22515869140625,0.2198486328125,0.13641357421875,-0.013275146484375,0.019317626953125,-0.003753662109375
-0.13011169433593708,0.17279052734375075,0.20252990722656317,-0.0031890869140624046,0.0031890869140629025,0.00012207031249990806
0.0057373046875,0.089019775390625,0.044158935546875,-0.013214111328125,0.054290771484375,-0.02325439453125
-0.0283966064453125,0.1238861083984375,0.052215576171875,-0.0237274169921875,0.0327301025390625,-0.01507568359375
-0.470428466796875,0.28338623046875,0.09405517578125,0.025360107421875,0.069366455078125,-0.075439453125
-0.6475830078125,0.04705810546875,-0.01873779296875,0.0435791015625,0.0667572021484375,-0.0808868408203125
-0.3341979980468756,0.18542480468750194,0.08483886718750083,0.06152343749999984,0.03729248046874986,-0.07418823242187507
-0.3045806884765625,0.4324951171875,0.0963287353515625,0.0455780029296875,0.0146026611328125,-0.0679931640625

-0.31317138671874933,0.16937255859374814,-0.08721923828124847,-0.00262451171874941,-0.0016479492187500874,0.013488769531249946
-0.2864227294921875,-0.0026702880859375,-0.0261993408203125,0.0086669921875,-0.0270538330078125,0.0335540771484375
-0.328460693359375,0.12811279296875,-0.0579833984375,-0.030975341796875,-0.0205078125,0.0506591796875
-0.3191070556640625,0.3454437255859375,0.05731201171875,0.0652923583984375,-0.039031982421875,0.004119873046875
-0.22515869140625,0.2198486328125,0.13641357421875,-0.013275146484375,0.019317626953125,-0.003753662109375
-0.13011169433593708,0.17279052734375075,0.20252990722656317,-0.0031890869140624046,0.0031890869140629025,0.00012207031249990806
0.0057373046875,0.089019775390625,0.044158935546875,-0.013214111328125,0.054290771484375,-0.02325439453125
-0.0283966064453125,0.1238861083984375,0.052215576171875,-0.0237274169921875,0.0327301025390625,-0.01507568359375
-0.470428466796875,0.28338623046875,0.09405517578125,0.025360107421875,0.069366455078125,-0.075439453125
-0.6475830078125,0.04705810546875,-0.01873779296875,0.0435791015625,0.0667572021484375,-0.0808868408203125
-0.3341979980468756,0.18542480468750194,0.08483886718750083,0.06152343749999984,0.03729248046874986,-0.07418823242187507
-0.3045806884765625,0.4324951171875,0.0963287353515625,0.0455780029296875,0.0146026611328125,-0.0679931640625
-0.18634033203125,0.024566650390625,0.0467529296875,0.034576416015625,-0.02105712890625,-0.01483154296875
-0.104888916015625,-0.09539794921875,-0.01953125,-0.02032470703125,-0.0230255126953125,0.027862548828125
-0.021392822265625,-0.176971435546875,-0.136932373046875,-0.08453369140625,-0.0169677734375,0.057281494140625
0.048980712890625173,-0.11013793945312439,-0.051696777343748224,-0.09719848632812468,-0.011077880859374873,0.06489562988281249
-0.064178466796875,0.2774658203125,-0.187286376953125,0.027801513671875,0.000946044921875,-0.021087646484375
-0.078933715820315,-0.15461730957031528,0.13830566406250347,-0.013366699218748349,-0.0038909912109383743,-0.02536010742187451
-0.9998779296875,0.063720703125,-0.054168701171875,-0.11456298828125,0.012969970703125,0.091949462890625
-0.27656555175781317,0.46197509765625216,-0.24920654296875128,0.0787963867187499,0.0030975341796874592,0.059387207031250035

-0.470428466796875,0.28338623046875,0.09405517578125,0.025360107421875,0.069366455078125,-0.075439453125
-0.6475830078125,0.04705810546875,-0.01873779296875,0.0435791015625,0.0667572021484375,-0.0808868408203125
-0.3341979980468756,0.18542480468750194,0.08483886718750083,0.06152343749999984,0.03729248046874986,-0.07418823242187507
-0.3045806884765625,0.4324951171875,0.0963287353515625,0.0455780029296875,0.0146026611328125,-0.0679931640625
-0.18634033203125,0.024566650390625,0.0467529296875,0.034576416015625,-0.02105712890625,-0.01483154296875
-0.104888916015625,-0.09539794921875,-0.01953125,-0.02032470703125,-0.0230255126953125,0.027862548828125
-0.021392822265625,-0.176971435546875,-0.136932373046875,-0.08453369140625,-0.0169677734375,0.057281494140625
0.048980712890625173,-0.11013793945312439,-0.051696777343748224,-0.09719848632812468,-0.011077880859374873,0.06489562988281249
-0.064178466796875,0.2774658203125,-0.187286376953125,0.027801513671875,0.000946044921875,-0.021087646484375
-0.078933715820315,-0.15461730957031528,0.13830566406250347,-0.013366699218748349,-0.0038909912109383743,-0.02536010742187451
-0.9998779296875,0.063720703125,-0.054168701171875,-0.11456298828125,0.012969970703125,0.091949462890625
-0.27656555175781317,0.46197509765625216,-0.24920654296875128,0.0787963867187499,0.0030975341796874592,0.059387207031250035
-0.2843017578125,0.339813232421875,-0.1939697265625,0.048828125,-0.05096435546875,0.03179931640625
-0.48049926757812406,0.07333374023437969,0.026123046874996947,0.0554046630859372,-0.15292358398437497,0.005264282226562772
-0.35400390625,0.140350341796875,0.370758056640625,-0.00579833984375,-0.068756103515625,0.016937255859375
-0.11500549316406235,0.15016174316406214,0.18322753906250025,-0.03770446777343744,0.02148437500000003,0.010559082031249896
0.0454101562500001,0.11050415039062365,0.14367675781249936,0.007171630859375541,0.003204345703125289,-0.006805419921875361
-0.026763916015626846,0.030395507812498418,0.09286499023437483,0.04803466796875014,0.03868103027343766,-0.04336547851562513
-0.3541259765625,0.1009521484375,-0.08746337890625,0.041717529296875,0.09283447265625,-0.03460693359375
-0.7910461425781271,0.37963867187500056,0.1414642333984386,0.05416870117187546,0.10513305664062468,-0.06336975097656238

-0.064178466796875,0.2774658203125,-0.187286376953125,0.027801513671875,0.000946044921875,-0.021087646484375
-0.078933715820315,-0.15461730957031528,0.13830566406250347,-0.013366699218748349,-0.0038909912109383743,-0.02536010742187451
-0.9998779296875,0.063720703125,-0.054168701171875,-0.11456298828125,0.012969970703125,0.091949462890625
-0.27656555175781317,0.46197509765625216,-0.24920654296875128,0.0787963867187499,0.0030975341796874592,0.059387207031250035
-0.2843017578125,0.339813232421875,-0.1939697265625,0.048828125,-0.05096435546875,0.03179931640625
-0.48049926757812406,0.07333374023437969,0.026123046874996947,0.0554046630859372,-0.15292358398437497,0.005264282226562772
-0.35400390625,0.140350341796875,0.370758056640625,-0.00579833984375,-0.068756103515625,0.016937255859375
-0.11500549316406235,0.15016174316406214,0.18322753906250025,-0.03770446777343744,0.02148437500000003,0.010559082031249896
0.0454101562500001,0.11050415039062365,0.14367675781249936,0.007171630859375541,0.003204345703125289,-0.006805419921875361
-0.026763916015626846,0.030395507812498418,0.09286499023437483,0.04803466796875014,0.03868103027343766,-0.04336547851562513
-0.3541259765625,0.1009521484375,-0.08746337890625,0.041717529296875,0.09283447265625,-0.03460693359375
-0.7910461425781271,0.37963867187500056,0.1414642333984386,0.05416870117187546,0.10513305664062468,-0.06336975097656238
-0.368621826171875,0.23321533203125,0.0831298828125,0.03338623046875,0.037750244140625,-0.076263427734375
-0.2159271240234364,0.3308258056640618,0.15025329589843853,0.02671813964843722,0.012161254882812438,-0.05848693847656207
-0.166107177734375,0.1968994140625,0.070465087890625,0.005126953125,-0.02301025390625,-0.004913330078125
-0.14836120605468694,-0.09660339355468661,-0.08944702148437464,-0.05245971679687444,-0.02568054199218769,0.029129028320312444
0.032501220703125,-0.26544189453125,-0.136627197265625,-0.064056396484375,-0.010345458984375,0.05804443359375
0.015213012695312774,0.14158630371094033,0.014587402343750559,0.03157043457031272,-0.023895263671875003,0.04106140136718718
-0.12551879882812397,0.23547363281249442,0.08795166015624946,-0.064056396484375,0.03433227539062537,-0.06289672851562546
-0.7133331298828148,-0.11849975585937425,0.06665039062499938,-0.04209899902343817,-0.010696411132812307,0.01445007324218792

0.0454101562500001,0.11050415039062365,0.14367675781249936,0.007171630859375541,0.003204345703125289,-0.006805419921875361
-0.026763916015626846,0.030395507812498418,0.09286499023437483,0.04803466796875014,0.03868103027343766,-0.04336547851562513
-0.3541259765625,0.1009521484375,-0.08746337890625,0.041717529296875,0.09283447265625,-0.03460693359375
-0.7910461425781271,0.37963867187500056,0.1414642333984386,0.05416870117187546,0.10513305664062468,-0.06336975097656238
-0.368621826171875,0.23321533203125,0.0831298828125,0.03338623046875,0.037750244140625,-0.076263427734375
-0.2159271240234364,0.3308258056640618,0.15025329589843853,0.02671813964843722,0.012161254882812438,-0.05848693847656207
-0.166107177734375,0.1968994140625,0.070465087890625,0.005126953125,-0.02301025390625,-0.004913330078125
-0.14836120605468694,-0.09660339355468661,-0.08944702148437464,-0.05245971679687444,-0.02568054199218769,0.029129028320312444
0.032501220703125,-0.26544189453125,-0.136627197265625,-0.064056396484375,-0.010345458984375,0.05804443359375
0.015213012695312774,0.14158630371094033,0.014587402343750559,0.03157043457031272,-0.023895263671875003,0.04106140136718718
-0.12551879882812397,0.23547363281249442,0.08795166015624946,-0.064056396484375,0.03433227539062537,-0.06289672851562546
-0.7133331298828148,-0.11849975585937425,0.06665039062499938,-0.04209899902343817,-0.010696411132812307,0.01445007324218792
-0.179229736328125,-0.088775634765625,-0.309661865234375,-0.024627685546875,0.014892578125,0.065582275390625
-0.5023040771484387,0.6052093505859448,-0.168869018554691,-0.06158447265624897,-0.006790161132812615,0.09255981445312475
-0.287078857421875,0.378662109375,-0.354766845703125,0.169586181640625,-0.083099365234375,-0.00762939453125
-0.4568634033203107,0.13235473632812572,0.2895050048828126,0.04203796386718616,-0.050781249999999,0.010955810546874995
-0.072723388671875,0.0750732421875,0.02679443359375,-0.03656005859375,0.003692626953125,0.026702880859375
0.051528930664061084,0.13182067871093847,0.2199554443359407,-0.005432128906251429,0.014373779296874493,-0.005752563476562207
-0.02325439453125,0.065673828125,0.201751708984375,0.01849365234375,0.05303955078125,-0.03515625
-0.21270751953125067,0.07727050781250128,-0.10166931152343787,0.06144714355468759,0.06625366210937504,-0.025619506835937465

0.032501220703125,-0.26544189453125,-0.136627197265625,-0.064056396484375,-0.010345458984375,0.05804443359375
0.015213012695312774,0.14158630371094033,0.014587402343750559,0.03157043457031272,-0.023895263671875003,0.04106140136718718
-0.12551879882812397,0.23547363281249442,0.08795166015624946,-0.064056396484375,0.03433227539062537,-0.06289672851562546
-0.7133331298828148,-0.11849975585937425,0.06665039062499938,-0.04209899902343817,-0.010696411132812307,0.01445007324218792
-0.179229736328125,-0.088775634765625,-0.309661865234375,-0.024627685546875,0.014892578125,0.065582275390625
-0.5023040771484387,0.6052093505859448,-0.168869018554691,-0.06158447265624897,-0.006790161132812615,0.09255981445312475
-0.287078857421875,0.378662109375,-0.354766845703125,0.169586181640625,-0.083099365234375,-0.00762939453125
-0.4568634033203107,0.13235473632812572,0.2895050048828126,0.04203796386718616,-0.050781249999999,0.010955810546874995
-0.072723388671875,0.0750732421875,0.02679443359375,-0.03656005859375,0.003692626953125,0.026702880859375
0.051528930664061084,0.13182067871093847,0.2199554443359407,-0.005432128906251429,0.014373779296874493,-0.005752563476562207
-0.02325439453125,0.065673828125,0.201751708984375,0.01849365234375,0.05303955078125,-0.03515625
-0.21270751953125067,0.07727050781250128,-0.10166931152343787,0.06144714355468759,0.06625366210937504,-0.025619506835937465
-0.7800292968750039,0.42538452148437184,0.18566894531250247,0.05212402343750045,0.08868408203125003,-0.07125854492187458
-0.6616973876953107,0.06384277343750161,0.030822753906248994,-0.029022216796875156,0.11360168457031203,-0.05618286132812491
-0.21539306640625,0.373260498046875,0.017578125,0.05792236328125,0.014068603515625,-0.0736083984375
-0.06300354003906318,0.19355773925781117,0.1010131835937492,0.010467529296874833,-0.018524169921875236,-0.02249145507812448
-0.15826416015625,-0.0560302734375,-0.073638916015625,-0.07049560546875,-0.02947998046875,0.050384521484375
0.0220336914062514,-0.2968597412109375,-0.0808868408203121,-0.031524658203124306,-0.00015258789062496075,0.06692504882812499
0.07440185546875,0.1175537109375,-0.032318115234375,0.033233642578125,-0.0157470703125,0.05841064453125
-0.06956481933593854,0.3477783203125021,0.07234191894531367,-0.02244567871093708,0.015304565429687125,-0.033874511718749785

-0.072723388671875,0.0750732421875,0.02679443359375,-0.03656005859375,0.003692626953125,0.026702880859375
0.051528930664061084,0.13182067871093847,0.2199554443359407,-0.005432128906251429,0.014373779296874493,-0.005752563476562207
-0.02325439453125,0.065673828125,0.201751708984375,0.01849365234375,0.05303955078125,-0.03515625
-0.21270751953125067,0.07727050781250128,-0.10166931152343787,0.06144714355468759,0.06625366210937504,-0.025619506835937465
-0.7800292968750039,0.42538452148437184,0.18566894531250247,0.05212402343750045,0.08868408203125003,-0.07125854492187458
-0.6616973876953107,0.06384277343750161,0.030822753906248994,-0.029022216796875156,0.11360168457031203,-0.05618286132812491
-0.21539306640625,0.373260498046875,0.017578125,0.05792236328125,0.014068603515625,-0.0736083984375
-0.06300354003906318,0.19355773925781117,0.1010131835937492,0.010467529296874833,-0.018524169921875236,-0.02249145507812448
-0.15826416015625,-0.0560302734375,-0.073638916015625,-0.07049560546875,-0.02947998046875,0.050384521484375
0.0220336914062514,-0.2968597412109375,-0.0808868408203121,-0.031524658203124306,-0.00015258789062496075,0.06692504882812499
0.07440185546875,0.1175537109375,-0.032318115234375,0.033233642578125,-0.0157470703125,0.05841064453125
-0.06956481933593854,0.3477783203125021,0.07234191894531367,-0.02244567871093708,0.015304565429687125,-0.033874511718749785
-0.972747802734375,-0.088623046875,0.020751953125,-0.095184326171875,-0.0333251953125,0.0162353515625
-0.10244750976562257,0.20085144042968534,-0.2796020507812498,-0.012649536132811626,-0.0016174316406252463,0.03543090820312454
-0.32214355468750594,0.0762634277343867,0.038360595703120746,-0.04458618164062536,-0.023590087890625028,0.08062744140624994
-0.4788055419921858,0.3717651367187457,-0.3839874267578112,0.08149719238281344,-0.08058166503906367,0.039093017578124764
-0.117156982421875,0.20574951171875,0.10638427734375,-0.0703125,0.017181396484375,0.049468994140625
0.14514160156249967,0.20606994628906133,0.02586364746094119,-0.004913330078124742,0.03858947753906248,-0.018524169921874674
-0.20800781250001965,0.04623413085938866,-0.05102539062498712,0.05630493164062259,0.04989624023437735,-0.023437500000000198
-0.2681884765624953,0.2518615722656252,0.004638671875001721,0.05459594726562483,0.015487670898436733,-0.07278442382812464

-0.15826416015625,-0.0560302734375,-0.073638916015625,-0.07049560546875,-0.02947998046875,0.050384521484375
0.0220336914062514,-0.2968597412109375,-0.0808868408203121,-0.031524658203124306,-0.00015258789062496075,0.06692504882812499
0.07440185546875,0.1175537109375,-0.032318115234375,0.033233642578125,-0.0157470703125,0.05841064453125
-0.06956481933593854,0.3477783203125021,0.07234191894531367,-0.02244567871093708,0.015304565429687125,-0.033874511718749785
-0.972747802734375,-0.088623046875,0.020751953125,-0.095184326171875,-0.0333251953125,0.0162353515625
-0.10244750976562257,0.20085144042968534,-0.2796020507812498,-0.012649536132811626,-0.0016174316406252463,0.03543090820312454
-0.32214355468750594,0.0762634277343867,0.038360595703120746,-0.04458618164062536,-0.023590087890625028,0.08062744140624994
-0.4788055419921858,0.3717651367187457,-0.3839874267578112,0.08149719238281344,-0.08058166503906367,0.039093017578124764
-0.117156982421875,0.20574951171875,0.10638427734375,-0.0703125,0.017181396484375,0.049468994140625
0.14514160156249967,0.20606994628906133,0.02586364746094119,-0.004913330078124742,0.03858947753906248,-0.018524169921874674
-0.20800781250001965,0.04623413085938866,-0.05102539062498712,0.05630493164062259,0.04989624023437735,-0.023437500000000198
-0.2681884765624953,0.2518615722656252,0.004638671875001721,0.05459594726562483,0.015487670898436733,-0.07278442382812464
-0.165802001953125,0.141326904296875,0.06231689453125,0.00982666015625,-0.012176513671875,-0.0103759765625
-0.1527099609375,-0.167694091796875,-0.1181488037109375,-0.065216064453125,-0.0308380126953125,0.03692626953125
-0.052001953125,-0.25592041015625,-0.128021240234375,-0.05181884765625,-0.007110595703125,0.050018310546875
0.04067993164062092,0.40374755859375455,0.04492187500000333,0.01821899414062363,0.007369995117188105,-0.014160156250002179
-0.0482177734375,-0.19793701171875,-0.09686279296875,-0.046600341796875,0.0352783203125,-0.08154296875
-0.7488861083984375,0.15966796875,-0.025054931640625014,-0.08184814453125,-0.0462188720703125,0.0600433349609375
0.045318603515625,-0.110443115234375,-0.171844482421875,0.012451171875,0.02215576171875,0.015228271484375
-0.6023406982421939,0.4561614990234399,0.41258239746091285,-0.015853881835939616,-0.0963592529296835,0.06925964355468903

-0.117156982421875,0.20574951171875,0.10638427734375,-0.0703125,0.017181396484375,0.049468994140625
0.14514160156249967,0.20606994628906133,0.02586364746094119,-0.004913330078124742,0.03858947753906248,-0.018524169921874674
-0.20800781250001965,0.04623413085938866,-0.05102539062498712,0.05630493164062259,0.04989624023437735,-0.023437500000000198
-0.2681884765624953,0.2518615722656252,0.004638671875001721,0.05459594726562483,0.015487670898436733,-0.07278442382812464
-0.165802001953125,0.141326904296875,0.06231689453125,0.00982666015625,-0.012176513671875,-0.0103759765625
-0.1527099609375,-0.167694091796875,-0.1181488037109375,-0.065216064453125,-0.0308380126953125,0.03692626953125
-0.052001953125,-0.25592041015625,-0.128021240234375,-0.05181884765625,-0.007110595703125,0.050018310546875
0.04067993164062092,0.40374755859375455,0.04492187500000333,0.01821899414062363,0.007369995117188105,-0.014160156250002179
-0.0482177734375,-0.19793701171875,-0.09686279296875,-0.046600341796875,0.0352783203125,-0.08154296875
-0.7488861083984375,0.15966796875,-0.025054931640625014,-0.08184814453125,-0.0462188720703125,0.0600433349609375
0.045318603515625,-0.110443115234375,-0.171844482421875,0.012451171875,0.02215576171875,0.015228271484375
-0.6023406982421939,0.4561614990234399,0.41258239746091285,-0.015853881835939616,-0.0963592529296835,0.06925964355468903
-0.278594970703125,0.170013427734375,0.253204345703125,0.0186767578125,-0.04571533203125,0.02349853515625
-0.05860900878906139,0.07539367675781407,0.12940979003906597,-0.039398193359375104,0.0004577636718746513,0.019302368164062562
0.074615478515625,0.1851806640625,0.1717529296875,-0.02752685546875,0.020263671875,-0.008453369140625
-0.0023193359375,0.0514678955078125,0.1146240234375,0.0253448486328125,0.0235748291015625,-0.03302001953125
-0.2523498535156287,0.03634643554688072,-0.06326293945312877,0.03427124023437516,0.05944824218750026,-0.02914428710937488
-0.5784149169921935,0.37825012207031444,-0.036529541015620004,0.03089904785156221,0.07771301269531276,-0.03913879394531229
-0.162567138671875,0.277587890625,0.129638671875,-0.009185791015625,0.00146484375,-0.0098876953125
-0.28140258789062506,0.32904052734375,-0.264434814453125,-0.014984130859375,-0.0113525390625,0.0028533935546875

-0.0482177734375,-0.19793701171875,-0.09686279296875,-0.046600341796875,0.0352783203125,-0.08154296875
-0.7488861083984375,0.15966796875,-0.025054931640625014,-0.08184814453125,-0.0462188720703125,0.0600433349609375
0.045318603515625,-0.110443115234375,-0.171844482421875,0.012451171875,0.02215576171875,0.015228271484375
-0.6023406982421939,0.4561614990234399,0.41258239746091285,-0.015853881835939616,-0.0963592529296835,0.06925964355468903
-0.278594970703125,0.170013427734375,0.253204345703125,0.0186767578125,-0.04571533203125,0.02349853515625
-0.05860900878906139,0.07539367675781407,0.12940979003906597,-0.039398193359375104,0.0004577636718746513,0.019302368164062562
0.074615478515625,0.1851806640625,0.1717529296875,-0.02752685546875,0.020263671875,-0.008453369140625
-0.0023193359375,0.0514678955078125,0.1146240234375,0.0253448486328125,0.0235748291015625,-0.03302001953125
-0.2523498535156287,0.03634643554688072,-0.06326293945312877,0.03427124023437516,0.05944824218750026,-0.02914428710937488
-0.5784149169921935,0.37825012207031444,-0.036529541015620004,0.03089904785156221,0.07771301269531276,-0.03913879394531229
-0.162567138671875,0.277587890625,0.129638671875,-0.009185791015625,0.00146484375,-0.0098876953125
-0.28140258789062506,0.32904052734375,-0.264434814453125,-0.014984130859375,-0.0113525390625,0.0028533935546875
-0.328857421875,0.123016357421875,0.24969482421875,0.033538818359375,-0.056915283203125,0.0328369140625
0.11776733398437439,0.1601867675781236,0.02947998046874592,0.008071899414062327,0.03175354003906213,-0.021133422851562708
-0.028076171875,0.029144287109375,0.1109619140625,0.044769287109375,0.047393798828125,-0.0465087890625
-0.28401184082030684,0.25070190429687284,-0.12672424316405695,0.07772827148437414,0.003601074218749798,-0.08216857910156163
0.023468017578125,-0.228057861328125,0.022308349609375,-0.018280029296875,0.018096923828125,0.06976318359375
-0.002197265625,0.51544189453125,0.0229644775390625,-0.005126953125,-0.012115478515625,-0.0032501220703125035
0.03143310546872224,-0.004486083984380918,-0.05480957031249513,-0.018737792968748865,0.05435180664062125,-0.05252075195312423
-0.42448425292966824,0.04945373535156077,-0.09095764160156658,-0.06488037109374731,0.013092041015625815,0.022094726562499688

-0.2523498535156287,0.03634643554688072,-0.06326293945312877,0.03427124023437516,0.05944824218750026,-0.02914428710937488
-0.5784149169921935,0.37825012207031444,-0.036529541015620004,0.03089904785156221,0.07771301269531276,-0.03913879394531229
-0.162567138671875,0.277587890625,0.129638671875,-0.009185791015625,0.00146484375,-0.0098876953125
-0.28140258789062506,0.32904052734375,-0.264434814453125,-0.014984130859375,-0.0113525390625,0.0028533935546875
-0.328857421875,0.123016357421875,0.24969482421875,0.033538818359375,-0.056915283203125,0.0328369140625
0.11776733398437439,0.1601867675781236,0.02947998046874592,0.008071899414062327,0.03175354003906213,-0.021133422851562708
-0.028076171875,0.029144287109375,0.1109619140625,0.044769287109375,0.047393798828125,-0.0465087890625
-0.28401184082030684,0.25070190429687284,-0.12672424316405695,0.07772827148437414,0.003601074218749798,-0.08216857910156163
0.023468017578125,-0.228057861328125,0.022308349609375,-0.018280029296875,0.018096923828125,0.06976318359375
-0.002197265625,0.51544189453125,0.0229644775390625,-0.005126953125,-0.012115478515625,-0.0032501220703125035
0.03143310546872224,-0.004486083984380918,-0.05480957031249513,-0.018737792968748865,0.05435180664062125,-0.05252075195312423
-0.42448425292966824,0.04945373535156077,-0.09095764160156658,-0.06488037109374731,0.013092041015625815,0.022094726562499688
-0.62017822265625,0.3568115234375,0.03997802734375,-0.056671142578125,-0.033172607421875,0.1015625
-0.383148193359375,0.2161102294921875,-0.31915283203125,0.068023681640625,-0.0909576416015625,0.005126953125
-0.397613525390625,0.18341064453125,0.184539794921875,0.05242919921875,-0.06707763671875,0.01422119140625
-0.1734771728515578,0.20193481445312583,0.25012207031250366,-0.027725219726561987,-0.0220794677734368,0.031173706054687368
0.1124267578125,-0.275421142578125,-0.01483154296875,-0.0560302734375,0.016632080078125,0.06207275390625
-0.037979125976561764,0.1610870361328084,-0.19606018066406386,-0.01812744140624998,0.04301452636718825,-0.0640106201171874
-0.811981201171875,0.03741455078125,0.0367431640625,-0.061065673828125,-0.04168701171875,0.039794921875
-0.17169189453124997,0.0258026123046875,0.010284423828125,-0.016860961914062503,-0.0072021484375,0.05938720703125

0.023468017578125,-0.228057861328125,0.022308349609375,-0.018280029296875,0.018096923828125,0.06976318359375
-0.002197265625,0.51544189453125,0.0229644775390625,-0.005126953125,-0.012115478515625,-0.0032501220703125035
0.03143310546872224,-0.004486083984380918,-0.05480957031249513,-0.018737792968748865,0.05435180664062125,-0.05252075195312423
-0.42448425292966824,0.04945373535156077,-0.09095764160156658,-0.06488037109374731,0.013092041015625815,0.022094726562499688
-0.62017822265625,0.3568115234375,0.03997802734375,-0.056671142578125,-0.033172607421875,0.1015625
-0.383148193359375,0.2161102294921875,-0.31915283203125,0.068023681640625,-0.0909576416015625,0.005126953125
-0.397613525390625,0.18341064453125,0.184539794921875,0.05242919921875,-0.06707763671875,0.01422119140625
-0.1734771728515578,0.20193481445312583,0.25012207031250366,-0.027725219726561987,-0.0220794677734368,0.031173706054687368
0.1124267578125,-0.275421142578125,-0.01483154296875,-0.0560302734375,0.016632080078125,0.06207275390625
-0.037979125976561764,0.1610870361328084,-0.19606018066406386,-0.01812744140624998,0.04301452636718825,-0.0640106201171874
-0.811981201171875,0.03741455078125,0.0367431640625,-0.061065673828125,-0.04168701171875,0.039794921875
-0.17169189453124997,0.0258026123046875,0.010284423828125,-0.016860961914062503,-0.0072021484375,0.05938720703125
-0.7553405761718601,0.7980957031249889,-0.16400146484376443,-0.031036376953123248,-0.01989746093750144,0.08703613281249817
-0.40292358398437106,0.1945800781250024,0.12689208984375636,0.037399291992187084,-0.11970520019531135,0.024810791015625198
-0.301788330078125,0.0799560546875,0.123291015625,-0.044525146484375,-0.03277587890625,0.0457763671875
-0.327606201171875,0.104766845703125,0.1490631103515625,-0.0467987060546875,0.0583648681640625,-0.0203094482421875
-0.164306640625,-0.25030517578125,-0.120391845703125,-0.01678466796875,-0.024200439453125,0.023712158203125
0.017089843750001693,-0.2317657470703111,-0.07928466796874689,-0.07150268554687439,-0.006958007812499646,0.06620788574218754
-0.040252685546875,0.1898193359375,-0.14556884765625,-0.029388427734375,0.0595703125,-0.07275390625
-0.6976318359375,0.3751678466796875,-0.0479278564453125,-0.03857421875,-0.03192138671875,0.063568115234375

0.1124267578125,-0.275421142578125,-0.01483154296875,-0.0560302734375,0.016632080078125,0.06207275390625
-0.037979125976561764,0.1610870361328084,-0.19606018066406386,-0.01812744140624998,0.04301452636718825,-0.0640106201171874
-0.811981201171875,0.03741455078125,0.0367431640625,-0.061065673828125,-0.04168701171875,0.039794921875
-0.17169189453124997,0.0258026123046875,0.010284423828125,-0.016860961914062503,-0.0072021484375,0.05938720703125
-0.7553405761718601,0.7980957031249889,-0.16400146484376443,-0.031036376953123248,-0.01989746093750144,0.08703613281249817
-0.40292358398437106,0.1945800781250024,0.12689208984375636,0.037399291992187084,-0.11970520019531135,0.024810791015625198
-0.301788330078125,0.0799560546875,0.123291015625,-0.044525146484375,-0.03277587890625,0.0457763671875
-0.327606201171875,0.104766845703125,0.1490631103515625,-0.0467987060546875,0.0583648681640625,-0.0203094482421875
-0.164306640625,-0.25030517578125,-0.120391845703125,-0.01678466796875,-0.024200439453125,0.023712158203125
0.017089843750001693,-0.2317657470703111,-0.07928466796874689,-0.07150268554687439,-0.006958007812499646,0.06620788574218754
-0.040252685546875,0.1898193359375,-0.14556884765625,-0.029388427734375,0.0595703125,-0.07275390625
-0.6976318359375,0.3751678466796875,-0.0479278564453125,-0.03857421875,-0.03192138671875,0.063568115234375
-0.50567626953125,-0.036834716796875,-0.08563232421875,0.0146484375,-0.222259521484375,0.02239990234375
-0.288177490234375,0.2479095458984375,0.142242431640625,0.0236358642578125,-0.040618896484375,0.0287933349609375
-0.24517822265624953,0.1612243652343703,0.12219238281250044,-0.04290771484374949,-0.020141601562500378,0.02850341796874998
0.09883117675781766,0.20918273925781528,0.12763977050781103,-0.016632080078123404,0.002609252929687736,0.005630493164062025
-0.16583251953125,-0.107452392578125,-0.04010009765625,-0.01904296875,-0.0418701171875,0.0333251953125
0.063873291015625,-0.2495269775390625,-0.0768585205078125,-0.045379638671875,-0.013092041015625,0.0557403564453125
-0.182952880859375,0.653472900390625,0.0230712890625,0.016937255859375,-0.00933837890625,-0.0072021484375
-0.24641418457031714,-0.15306091308593553,-0.08427429199218882,0.005798339843750064,-0.017669677734375073,0.04148864746093808

-0.164306640625,-0.25030517578125,-0.120391845703125,-0.01678466796875,-0.024200439453125,0.023712158203125
0.017089843750001693,-0.2317657470703111,-0.07928466796874689,-0.07150268554687439,-0.006958007812499646,0.06620788574218754
-0.040252685546875,0.1898193359375,-0.14556884765625,-0.029388427734375,0.0595703125,-0.07275390625
-0.6976318359375,0.3751678466796875,-0.0479278564453125,-0.03857421875,-0.03192138671875,0.063568115234375
-0.50567626953125,-0.036834716796875,-0.08563232421875,0.0146484375,-0.222259521484375,0.02239990234375
-0.288177490234375,0.2479095458984375,0.142242431640625,0.0236358642578125,-0.040618896484375,0.0287933349609375
-0.24517822265624953,0.1612243652343703,0.12219238281250044,-0.04290771484374949,-0.020141601562500378,0.02850341796874998
0.09883117675781766,0.20918273925781528,0.12763977050781103,-0.016632080078123404,0.002609252929687736,0.005630493164062025
-0.16583251953125,-0.107452392578125,-0.04010009765625,-0.01904296875,-0.0418701171875,0.0333251953125
0.063873291015625,-0.2495269775390625,-0.0768585205078125,-0.045379638671875,-0.013092041015625,0.0557403564453125
-0.182952880859375,0.653472900390625,0.0230712890625,0.016937255859375,-0.00933837890625,-0.0072021484375
-0.24641418457031714,-0.15306091308593553,-0.08427429199218882,0.005798339843750064,-0.017669677734375073,0.04148864746093808
-0.4061279296875,0.603485107421875,-0.295562744140625,-0.024261474609375,-0.038055419921875,0.02557373046875
-0.239471435546875,0.1953887939453125,0.229461669921875,-0.0537872314453125,-0.012176513671875,0.0386962890625
0.029937744140625,0.299224853515625,0.237030029296875,-0.067108154296875,0.0452880859375,-0.01068115234375
-0.0982818603515625,0.138702392578125,0.059783935546875,0.0256805419921875,-0.0068817138671875,-0.019683837890625
-0.19924926757811073,-0.2053222656249707,-0.07495117187498901,-0.04974365234374561,-0.04153442382812376,0.0417785644531253
0.10882568359374885,0.009963989257807032,-0.07786560058593664,-0.04376220703125057,-0.0029449462890640266,-0.010650634765623251
-0.479278564453125,0.431793212890625,0.871185302734375,-0.154296875,-0.182098388671875,0.042205810546875
-0.075103759765625,0.17376708984375,0.051483154296874986,0.005584716796875,0.0424957275390625,-0.067596435546875

-0.16583251953125,-0.107452392578125,-0.04010009765625,-0.01904296875,-0.0418701171875,0.0333251953125
0.063873291015625,-0.2495269775390625,-0.0768585205078125,-0.045379638671875,-0.013092041015625,0.0557403564453125
-0.182952880859375,0.653472900390625,0.0230712890625,0.016937255859375,-0.00933837890625,-0.0072021484375
-0.24641418457031714,-0.15306091308593553,-0.08427429199218882,0.005798339843750064,-0.017669677734375073,0.04148864746093808
-0.4061279296875,0.603485107421875,-0.295562744140625,-0.024261474609375,-0.038055419921875,0.02557373046875
-0.239471435546875,0.1953887939453125,0.229461669921875,-0.0537872314453125,-0.012176513671875,0.0386962890625
0.029937744140625,0.299224853515625,0.237030029296875,-0.067108154296875,0.0452880859375,-0.01068115234375
-0.0982818603515625,0.138702392578125,0.059783935546875,0.0256805419921875,-0.0068817138671875,-0.019683837890625
-0.19924926757811073,-0.2053222656249707,-0.07495117187498901,-0.04974365234374561,-0.04153442382812376,0.0417785644531253
0.10882568359374885,0.009963989257807032,-0.07786560058593664,-0.04376220703125057,-0.0029449462890640266,-0.010650634765623251
-0.479278564453125,0.431793212890625,0.871185302734375,-0.154296875,-0.182098388671875,0.042205810546875
-0.075103759765625,0.17376708984375,0.051483154296874986,0.005584716796875,0.0424957275390625,-0.067596435546875
-0.145172119140625,-0.0186767578125,-0.019775390625,-0.013580322265625,-0.018096923828125,0.027313232421875
-0.006927490234373515,-0.04597473144530467,-0.11703491210937308,0.009185791015627505,-0.013351440429687117,0.05795288085937489
-0.73565673828125,0.47265625,0.2259521484375,-0.0601806640625,-0.058563232421875,0.146484375
-0.2646636962890625,0.1480560302734375,-0.549102783203125,0.0159759521484375,-0.0856170654296875,-0.01416015625
-0.37054443359375,0.222198486328125,0.278350830078125,0.021697998046875,-0.054046630859375,0.02288818359375
-0.1120758056640625,0.0919036865234375,0.070159912109375,-0.04010009765625,-0.00048828125,0.0104827880859375
0.10321044921873468,0.1720581054687462,0.23785400390623992,-0.017333984374998387,0.0021057128906275518,-0.015655517578125375
-0.559844970703115,0.2428131103515767,-0.07896423339844486,-0.022201538085936834,0.09226989746093671,-0.06787109374999992

-0.19924926757811073,-0.2053222656249707,-0.07495117187498901,-0.04974365234374561,-0.04153442382812376,0.0417785644531253
0.10882568359374885,0.009963989257807032,-0.07786560058593664,-0.04376220703125057,-0.0029449462890640266,-0.010650634765623251
-0.479278564453125,0.431793212890625,0.871185302734375,-0.154296875,-0.182098388671875,0.042205810546875
-0.075103759765625,0.17376708984375,0.051483154296874986,0.005584716796875,0.0424957275390625,-0.067596435546875
-0.145172119140625,-0.0186767578125,-0.019775390625,-0.013580322265625,-0.018096923828125,0.027313232421875
-0.006927490234373515,-0.04597473144530467,-0.11703491210937308,0.009185791015627505,-0.013351440429687117,0.05795288085937489
-0.73565673828125,0.47265625,0.2259521484375,-0.0601806640625,-0.058563232421875,0.146484375
-0.2646636962890625,0.1480560302734375,-0.549102783203125,0.0159759521484375,-0.0856170654296875,-0.01416015625
-0.37054443359375,0.222198486328125,0.278350830078125,0.021697998046875,-0.054046630859375,0.02288818359375
-0.1120758056640625,0.0919036865234375,0.070159912109375,-0.04010009765625,-0.00048828125,0.0104827880859375
0.10321044921873468,0.1720581054687462,0.23785400390623992,-0.017333984374998387,0.0021057128906275518,-0.015655517578125375
-0.559844970703115,0.2428131103515767,-0.07896423339844486,-0.022201538085936834,0.09226989746093671,-0.06787109374999992
-0.19158935546875,0.17578125,0.1309814453125,0.066070556640625,0.004486083984375,-0.076629638671875
-0.098419189453125,-0.0426025390625,-0.0397186279296875,-0.0182342529296875,-0.0443572998046875,0.026611328125
0.0557861328125,-0.2391357421875,-0.078704833984375,-0.06463623046875,0.000701904296875,0.076873779296875
-0.1637725830078127,0.49345397949218905,0.16232299804687483,0.004684448242187144,0.0059814453125000095,-0.009582519531250592
-0.398406982421875,0.064605712890625,-0.01116943359375,-0.02630615234375,-0.019683837890625,0.010498046875
-0.2269134521484375,-0.265838623046875,-0.180694580078125,-0.048004150390625,0.010345458984375,0.032684326171875
-0.53399658203125,0.3885498046875,0.051483154296875,-0.01080322265625,-0.012542724609375,0.109344482421875
-0.219757080078125,0.3256683349609375,0.379241943359375,-0.0822906494140625,-0.1363983154296875,0.0177154541015625

-0.37054443359375,0.222198486328125,0.278350830078125,0.021697998046875,-0.054046630859375,0.02288818359375
-0.1120758056640625,0.0919036865234375,0.070159912109375,-0.04010009765625,-0.00048828125,0.0104827880859375
0.10321044921873468,0.1720581054687462,0.23785400390623992,-0.017333984374998387,0.0021057128906275518,-0.015655517578125375
-0.559844970703115,0.2428131103515767,-0.07896423339844486,-0.022201538085936834,0.09226989746093671,-0.06787109374999992
-0.19158935546875,0.17578125,0.1309814453125,0.066070556640625,0.004486083984375,-0.076629638671875
-0.098419189453125,-0.0426025390625,-0.0397186279296875,-0.0182342529296875,-0.0443572998046875,0.026611328125
0.0557861328125,-0.2391357421875,-0.078704833984375,-0.06463623046875,0.000701904296875,0.076873779296875
-0.1637725830078127,0.49345397949218905,0.16232299804687483,0.004684448242187144,0.0059814453125000095,-0.009582519531250592
-0.398406982421875,0.064605712890625,-0.01116943359375,-0.02630615234375,-0.019683837890625,0.010498046875
-0.2269134521484375,-0.265838623046875,-0.180694580078125,-0.048004150390625,0.010345458984375,0.032684326171875
-0.53399658203125,0.3885498046875,0.051483154296875,-0.01080322265625,-0.012542724609375,0.109344482421875
-0.219757080078125,0.3256683349609375,0.379241943359375,-0.0822906494140625,-0.1363983154296875,0.0177154541015625
-0.386291503906246,0.22735595703125086,0.2615966796875034,-0.012390136718752116,-0.03570556640624888,0.017639160156249892
-0.08512878417968438,0.10981750488281186,0.122955322265624,-0.039749145507811924,-0.010848999023437288,0.0183410644531248
0.127044677734375,0.168701171875,-0.032257080078125,0.04632568359375,0.01544189453125,-0.019012451171875
-0.422576904296875,0.29583740234375,-0.0660858154296875,0.1041107177734375,0.0535888671875,-0.0550384521484375
-0.1759033203125,0.2362060546875,0.066925048828125,0.0526123046875,0.02642822265625,-0.057037353515625
-0.1327362060546875,0.0072784423828125,-0.044342041015625,0.0267333984375,-0.0254058837890625,0.00885009765625
-0.05560302734375,-0.28460693359375,-0.202850341796875,-0.059539794921875,-0.020050048828125,0.042022705078125
0.0756072998046875,-0.22198486328125,-0.0236053466796875,-0.0289764404296875,-0.0053863525390625,0.0821685791015625

-0.398406982421875,0.064605712890625,-0.01116943359375,-0.02630615234375,-0.019683837890625,0.010498046875
-0.2269134521484375,-0.265838623046875,-0.180694580078125,-0.048004150390625,0.010345458984375,0.032684326171875
-0.53399658203125,0.3885498046875,0.051483154296875,-0.01080322265625,-0.012542724609375,0.109344482421875
-0.219757080078125,0.3256683349609375,0.379241943359375,-0.0822906494140625,-0.1363983154296875,0.0177154541015625
-0.386291503906246,0.22735595703125086,0.2615966796875034,-0.012390136718752116,-0.03570556640624888,0.017639160156249892
-0.08512878417968438,0.10981750488281186,0.122955322265624,-0.039749145507811924,-0.010848999023437288,0.0183410644531248
0.127044677734375,0.168701171875,-0.032257080078125,0.04632568359375,0.01544189453125,-0.019012451171875
-0.422576904296875,0.29583740234375,-0.0660858154296875,0.1041107177734375,0.0535888671875,-0.0550384521484375
-0.1759033203125,0.2362060546875,0.066925048828125,0.0526123046875,0.02642822265625,-0.057037353515625
-0.1327362060546875,0.0072784423828125,-0.044342041015625,0.0267333984375,-0.0254058837890625,0.00885009765625
-0.05560302734375,-0.28460693359375,-0.202850341796875,-0.059539794921875,-0.020050048828125,0.042022705078125
0.0756072998046875,-0.22198486328125,-0.0236053466796875,-0.0289764404296875,-0.0053863525390625,0.0821685791015625
-0.08227539062501063,0.36444091796875777,0.06893920898438717,0.04241943359374814,-0.01403808593749838,0.013641357421872433
0.009597778320312497,0.1749420166015625,0.0268096923828125,-0.005203247070312502,0.0617218017578125,-0.07080078125
-0.774078369140625,-0.284759521484375,-0.035247802734375,-0.11614990234375,-0.037628173828125,0.045440673828125
-0.2789764404296875,0.2220458984375,-0.23370361328125,0.0291595458984375,-0.0024719238281249965,0.0491485595703125
-0.376007080078125,0.374481201171875,-0.21258544921875,-0.037689208984375,-0.13507080078125,0.01177978515625
-0.4784698486328095,0.08106994628907277,0.5179901123046913,-0.08615112304687735,-0.12579345703124734,0.013122558593750548
-0.26031494140625,0.293212890625,0.2322998046875,-0.022003173828125,-0.02972412109375,0.031280517578125
-0.0205230712890625,0.2079315185546875,0.14111328125,-0.0408782958984375,0.0107269287109375,0.004974365234375

-0.1759033203125,0.2362060546875,0.066925048828125,0.0526123046875,0.02642822265625,-0.057037353515625
-0.1327362060546875,0.0072784423828125,-0.044342041015625,0.0267333984375,-0.0254058837890625,0.00885009765625
-0.05560302734375,-0.28460693359375,-0.202850341796875,-0.059539794921875,-0.020050048828125,0.042022705078125
0.0756072998046875,-0.22198486328125,-0.0236053466796875,-0.0289764404296875,-0.0053863525390625,0.0821685791015625
-0.08227539062501063,0.36444091796875777,0.06893920898438717,0.04241943359374814,-0.01403808593749838,0.013641357421872433
0.009597778320312497,0.1749420166015625,0.0268096923828125,-0.005203247070312502,0.0617218017578125,-0.07080078125
-0.774078369140625,-0.284759521484375,-0.035247802734375,-0.11614990234375,-0.037628173828125,0.045440673828125
-0.2789764404296875,0.2220458984375,-0.23370361328125,0.0291595458984375,-0.0024719238281249965,0.0491485595703125
-0.376007080078125,0.374481201171875,-0.21258544921875,-0.037689208984375,-0.13507080078125,0.01177978515625
-0.4784698486328095,0.08106994628907277,0.5179901123046913,-0.08615112304687735,-0.12579345703124734,0.013122558593750548
-0.26031494140625,0.293212890625,0.2322998046875,-0.022003173828125,-0.02972412109375,0.031280517578125
-0.0205230712890625,0.2079315185546875,0.14111328125,-0.0408782958984375,0.0107269287109375,0.004974365234375
-0.002349853515625,0.065185546875,0.10638427734375,0.0498046875,0.02191162109375,-0.049072265625
-0.31463623046875,0.2073211669921875,-0.12489318847656249,0.0380096435546875,0.043670654296875,-0.033660888671875
-0.500091552734375,0.3203125,-0.089019775390625,0.049468994140625,0.120208740234375,-0.036773681640625
-0.856658935546875,-0.078216552734375,0.07000732421875,-0.005157470703125,0.1171112060546875,-0.0872955322265625
-0.194000244140625,0.30780029296875,0.082275390625,0.018890380859375,0.009368896484375,-0.02288818359375
-0.1635589599609375,0.1258697509765625,0.0239105224609375,0.0463104248046875,-0.028472900390625,-0.0015411376953125
-0.196136474609375,-0.360809326171875,-0.223846435546875,-0.02825927734375,-0.0352783203125,0.031524658203125
0.05210876464844199,-0.2594757080078071,-0.0812988281249879,-0.060852050781248675,-0.006835937499998784,0.06628417968750026

-0.376007080078125,0.374481201171875,-0.21258544921875,-0.037689208984375,-0.13507080078125,0.01177978515625
-0.4784698486328095,0.08106994628907277,0.5179901123046913,-0.08615112304687735,-0.12579345703124734,0.013122558593750548
-0.26031494140625,0.293212890625,0.2322998046875,-0.022003173828125,-0.02972412109375,0.031280517578125
-0.0205230712890625,0.2079315185546875,0.14111328125,-0.0408782958984375,0.0107269287109375,0.004974365234375
-0.002349853515625,0.065185546875,0.10638427734375,0.0498046875,0.02191162109375,-0.049072265625
-0.31463623046875,0.2073211669921875,-0.12489318847656249,0.0380096435546875,0.043670654296875,-0.033660888671875
-0.500091552734375,0.3203125,-0.089019775390625,0.049468994140625,0.120208740234375,-0.036773681640625
-0.856658935546875,-0.078216552734375,0.07000732421875,-0.005157470703125,0.1171112060546875,-0.0872955322265625
-0.194000244140625,0.30780029296875,0.082275390625,0.018890380859375,0.009368896484375,-0.02288818359375
-0.1635589599609375,0.1258697509765625,0.0239105224609375,0.0463104248046875,-0.028472900390625,-0.0015411376953125
-0.196136474609375,-0.360809326171875,-0.223846435546875,-0.02825927734375,-0.0352783203125,0.031524658203125
0.05210876464844199,-0.2594757080078071,-0.0812988281249879,-0.060852050781248675,-0.006835937499998784,0.06628417968750026
0.084716796875,0.207489013671875,-0.0379638671875,0.045166015625,-0.001312255859375,0.066497802734375
-0.1235504150390625,0.47125244140625,0.0886688232421875,-0.02001953125,0.0230560302734375,-0.0261993408203125
-0.018341064453125,-0.06500244140625,0.08746337890625,-0.002532958984375,0.030303955078125,-0.0496826171875
-0.7996673583984375,0.2345733642578125,-0.0646820068359375,-0.022674560546875,-0.007415771484375,0.069732666015625
-0.1666259765625,0.414398193359375,-0.413665771484375,0.006011962890625,-0.10784912109375,-0.0135498046875
-0.395050048828125,0.1384124755859375,0.2857818603515625,-0.0397796630859375,-0.09918212890625,0.0050201416015625
-0.26544189453125,0.204376220703125,0.23822021484375,-0.04144287109375,-0.012847900390625,0.0245361328125
0.0110015869140625,0.15130615234375,0.134796142578125,-0.032806396484375,0.026214599609375,0.0103759765625

-0.194000244140625,0.30780029296875,0.082275390625,0.018890380859375,0.009368896484375,-0.02288818359375
-0.1635589599609375,0.1258697509765625,0.0239105224609375,0.0463104248046875,-0.028472900390625,-0.0015411376953125
-0.196136474609375,-0.360809326171875,-0.223846435546875,-0.02825927734375,-0.0352783203125,0.031524658203125
0.05210876464844199,-0.2594757080078071,-0.0812988281249879,-0.060852050781248675,-0.006835937499998784,0.06628417968750026
0.084716796875,0.207489013671875,-0.0379638671875,0.045166015625,-0.001312255859375,0.066497802734375
-0.1235504150390625,0.47125244140625,0.0886688232421875,-0.02001953125,0.0230560302734375,-0.0261993408203125
-0.018341064453125,-0.06500244140625,0.08746337890625,-0.002532958984375,0.030303955078125,-0.0496826171875
-0.7996673583984375,0.2345733642578125,-0.0646820068359375,-0.022674560546875,-0.007415771484375,0.069732666015625
-0.1666259765625,0.414398193359375,-0.413665771484375,0.006011962890625,-0.10784912109375,-0.0135498046875
-0.395050048828125,0.1384124755859375,0.2857818603515625,-0.0397796630859375,-0.09918212890625,0.0050201416015625
-0.26544189453125,0.204376220703125,0.23822021484375,-0.04144287109375,-0.012847900390625,0.0245361328125
0.0110015869140625,0.15130615234375,0.134796142578125,-0.032806396484375,0.026214599609375,0.0103759765625
0.10736083984375,0.18353271484375,0.118408203125,0.011932373046875,0.01641845703125,-0.01983642578125
0.0006408691406240494,0.10043334960936927,0.07551574707030759,0.019790649414065272,0.04824829101562475,-0.03936767578125041
-0.223785400390625,0.24127197265625,-0.159393310546875,0.01849365234375,0.062530517578125,-0.027496337890625
-0.7444305419921875,0.09246826171874997,0.042877197265625,0.08087158203125,0.0980377197265625,-0.0588836669921875
-0.35778808593748657,0.3066101074218672,0.09899902343749384,0.07269287109375118,0.025970458984375874,-0.12850952148437395
-0.1248931884765625,0.1870880126953125,0.09613037109375,0.05194091796875,0.01416015625,-0.054290771484375
-0.1119384765625,-0.0926513671875,-0.057769775390625,-0.013702392578125,-0.020843505859375,0.029052734375
-0.035552978515625,-0.16143798828125,-0.1729736328125,-0.0792083740234375,-0.016448974609375,0.062591552734375

-0.1666259765625,0.414398193359375,-0.413665771484375,0.006011962890625,-0.10784912109375,-0.0135498046875
-0.395050048828125,0.1384124755859375,0.2857818603515625,-0.0397796630859375,-0.09918212890625,0.0050201416015625
-0.26544189453125,0.204376220703125,0.23822021484375,-0.04144287109375,-0.012847900390625,0.0245361328125
0.0110015869140625,0.15130615234375,0.134796142578125,-0.032806396484375,0.026214599609375,0.0103759765625
0.10736083984375,0.18353271484375,0.118408203125,0.011932373046875,0.01641845703125,-0.01983642578125
0.0006408691406240494,0.10043334960936927,0.07551574707030759,0.019790649414065272,0.04824829101562475,-0.03936767578125041
-0.223785400390625,0.24127197265625,-0.159393310546875,0.01849365234375,0.062530517578125,-0.027496337890625
-0.7444305419921875,0.09246826171874997,0.042877197265625,0.08087158203125,0.0980377197265625,-0.0588836669921875
-0.35778808593748657,0.3066101074218672,0.09899902343749384,0.07269287109375118,0.025970458984375874,-0.12850952148437395
-0.1248931884765625,0.1870880126953125,0.09613037109375,0.05194091796875,0.01416015625,-0.054290771484375
-0.1119384765625,-0.0926513671875,-0.057769775390625,-0.013702392578125,-0.020843505859375,0.029052734375
-0.035552978515625,-0.16143798828125,-0.1729736328125,-0.0792083740234375,-0.016448974609375,0.062591552734375
0.001953125,-0.17449951171875,-0.006195068359375,-0.031494140625,-0.000762939453125,0.088134765625
-0.14608764648438058,0.4404449462890699,0.13433837890627573,0.05236816406249801,-0.01327514648437388,0.002136230468747207
0.063018798828125,-0.03094482421875,-0.047393798828125,-0.00811767578125,0.06524658203125,-0.06134033203125
-0.5947113037109687,-0.20620727539062775,0.17590332031249584,-0.016799926757811806,-0.01739501953125199,-0.019607543945309516
-0.183135986328125,0.39202880859375,-0.222900390625,-0.027801513671875,-0.0126953125,0.0283203125
-0.171966552734375,0.263275146484375,0.0737152099609375,-0.0501708984375,-0.0099639892578125,0.06072998046875
-0.2938537597656413,0.33853149414059225,-0.3569641113280285,0.05029296874998641,-0.047241210937510866,0.0035400390625008075
-0.4564971923828125,0.1903228759765625,0.4368743896484375,-0.0274200439453125,-0.108184814453125,0.03759765625

-0.35778808593748657,0.3066101074218672,0.09899902343749384,0.07269287109375118,0.025970458984375874,-0.12850952148437395
-0.1248931884765625,0.1870880126953125,0.09613037109375,0.05194091796875,0.01416015625,-0.054290771484375
-0.1119384765625,-0.0926513671875,-0.057769775390625,-0.013702392578125,-0.020843505859375,0.029052734375
-0.035552978515625,-0.16143798828125,-0.1729736328125,-0.0792083740234375,-0.016448974609375,0.062591552734375
0.001953125,-0.17449951171875,-0.006195068359375,-0.031494140625,-0.000762939453125,0.088134765625
-0.14608764648438058,0.4404449462890699,0.13433837890627573,0.05236816406249801,-0.01327514648437388,0.002136230468747207
0.063018798828125,-0.03094482421875,-0.047393798828125,-0.00811767578125,0.06524658203125,-0.06134033203125
-0.5947113037109687,-0.20620727539062775,0.17590332031249584,-0.016799926757811806,-0.01739501953125199,-0.019607543945309516
-0.183135986328125,0.39202880859375,-0.222900390625,-0.027801513671875,-0.0126953125,0.0283203125
-0.171966552734375,0.263275146484375,0.0737152099609375,-0.0501708984375,-0.0099639892578125,0.06072998046875
-0.2938537597656413,0.33853149414059225,-0.3569641113280285,0.05029296874998641,-0.047241210937510866,0.0035400390625008075
-0.4564971923828125,0.1903228759765625,0.4368743896484375,-0.0274200439453125,-0.108184814453125,0.03759765625
-0.1343994140625,0.20654296875,0.350311279296875,-0.0433349609375,0.030364990234375,0.031402587890625
0.1400299072265625,0.2855224609375,0.11901855468749997,-0.0235137939453125,0.0339813232421875,-0.0278472900390625
0.0126953125,0.01177978515625,0.0338134765625,0.048553466796875,0.03173828125,-0.05450439453125
-0.14877319335937977,0.05845642089845095,-0.04141235351563263,0.0552825927734359,0.047775268554687944,-0.01702880859374916
-0.7125244140625,0.497528076171875,-0.06512451171875,0.033294677734375,0.1229248046875,-0.049224853515625
-0.6455688476562186,0.2934722900390576,0.1490325927734221,0.08265686035156557,0.04081726074218474,-0.10218811035156405
-0.236297607421875,0.179229736328125,0.1754150390625,0.135955810546875,-0.025177001953125,-0.14697265625
-0.1264190673828125,0.1030731201171875,0.0995635986328125,0.0220489501953125,-0.012847900390625,-0.0030517578125

-0.183135986328125,0.39202880859375,-0.222900390625,-0.027801513671875,-0.0126953125,0.0283203125
-0.171966552734375,0.263275146484375,0.0737152099609375,-0.0501708984375,-0.0099639892578125,0.06072998046875
-0.2938537597656413,0.33853149414059225,-0.3569641113280285,0.05029296874998641,-0.047241210937510866,0.0035400390625008075
-0.4564971923828125,0.1903228759765625,0.4368743896484375,-0.0274200439453125,-0.108184814453125,0.03759765625
-0.1343994140625,0.20654296875,0.350311279296875,-0.0433349609375,0.030364990234375,0.031402587890625
0.1400299072265625,0.2855224609375,0.11901855468749997,-0.0235137939453125,0.0339813232421875,-0.0278472900390625
0.0126953125,0.01177978515625,0.0338134765625,0.048553466796875,0.03173828125,-0.05450439453125
-0.14877319335937977,0.05845642089845095,-0.04141235351563263,0.0552825927734359,0.047775268554687944,-0.01702880859374916
-0.7125244140625,0.497528076171875,-0.06512451171875,0.033294677734375,0.1229248046875,-0.049224853515625
-0.6455688476562186,0.2934722900390576,0.1490325927734221,0.08265686035156557,0.04081726074218474,-0.10218811035156405
-0.236297607421875,0.179229736328125,0.1754150390625,0.135955810546875,-0.025177001953125,-0.14697265625
-0.1264190673828125,0.1030731201171875,0.0995635986328125,0.0220489501953125,-0.012847900390625,-0.0030517578125
-0.01885986328125186,0.24218750000001735,-0.14514160156247238,0.02450561523437316,-0.017211914062500368,0.08352661132812297
-0.1696014404296875,0.73577880859375,0.369720458984375,-0.023345947265625,0.0083770751953125,-0.0126953125
0.08544921875,-0.10003662109375,-0.09210205078125,0.01123046875,0.056396484375,-0.05169677734375
-0.651275634765625,-0.004974365234375,-0.000335693359375,-0.0043792724609375035,0.0029449462890625,0.0121002197265625
-0.1258544921875,0.120635986328125,-0.032806396484375,-0.0745849609375,-0.033233642578125,0.023223876953125
-0.6634521484374938,0.5361633300781392,-0.14572143554689138,-0.05065917968749441,-0.008438110351562085,0.10333251953124835
-0.32147216796875,0.238372802734375,-0.298553466796875,0.074462890625,-0.128387451171875,-0.008209228515625
-0.43923950195313544,0.18222045898435074,0.5800476074218426,-0.07244873046874115,-0.14729309082030667,0.02511596679687428

-0.7125244140625,0.497528076171875,-0.06512451171875,0.033294677734375,0.1229248046875,-0.049224853515625
-0.6455688476562186,0.2934722900390576,0.1490325927734221,0.08265686035156557,0.04081726074218474,-0.10218811035156405
-0.236297607421875,0.179229736328125,0.1754150390625,0.135955810546875,-0.025177001953125,-0.14697265625
-0.1264190673828125,0.1030731201171875,0.0995635986328125,0.0220489501953125,-0.012847900390625,-0.0030517578125
-0.01885986328125186,0.24218750000001735,-0.14514160156247238,0.02450561523437316,-0.017211914062500368,0.08352661132812297
-0.1696014404296875,0.73577880859375,0.369720458984375,-0.023345947265625,0.0083770751953125,-0.0126953125
0.08544921875,-0.10003662109375,-0.09210205078125,0.01123046875,0.056396484375,-0.05169677734375
-0.651275634765625,-0.004974365234375,-0.000335693359375,-0.0043792724609375035,0.0029449462890625,0.0121002197265625
-0.1258544921875,0.120635986328125,-0.032806396484375,-0.0745849609375,-0.033233642578125,0.023223876953125
-0.6634521484374938,0.5361633300781392,-0.14572143554689138,-0.05065917968749441,-0.008438110351562085,0.10333251953124835
-0.32147216796875,0.238372802734375,-0.298553466796875,0.074462890625,-0.128387451171875,-0.008209228515625
-0.43923950195313544,0.18222045898435074,0.5800476074218426,-0.07244873046874115,-0.14729309082030667,0.02511596679687428
-0.430206298828125,0.124847412109375,0.24749755859375,-0.074005126953125,-0.04791259765625,0.04119873046875
0.1159210205078125,0.22308349609375,0.036773681640625,-0.05029296875,0.056121826171875,0.003387451171875
0.11154174804686513,0.27294921874997935,0.12219238281250004,-0.026916503906243068,0.01593017578124959,-0.032806396484376735
-0.168670654296875,0.009628295898437497,0.038787841796875,0.050750732421875,0.05389404296875,-0.036102294921875
-0.9989013671875,0.072479248046875,0.263458251953125,0.085723876953125,0.121490478515625,-0.049896240234375
-0.54547119140625,0.2475433349609375,0.0252532958984375,-0.009643554687499998,0.0614013671875,-0.0810699462890625
-0.135009765625,0.284942626953125,0.069000244140625,0.09161376953125,0.023590087890625,-0.09698486328125
-0.17208862304687592,0.049819946289057254,0.03283691406249778,0.018051147460936612,-0.04077148437500164,0.007446289062500991

-0.1258544921875,0.120635986328125,-0.032806396484375,-0.0745849609375,-0.033233642578125,0.023223876953125
-0.6634521484374938,0.5361633300781392,-0.14572143554689138,-0.05065917968749441,-0.008438110351562085,0.10333251953124835
-0.32147216796875,0.238372802734375,-0.298553466796875,0.074462890625,-0.128387451171875,-0.008209228515625
-0.43923950195313544,0.18222045898435074,0.5800476074218426,-0.07244873046874115,-0.14729309082030667,0.02511596679687428
-0.430206298828125,0.124847412109375,0.24749755859375,-0.074005126953125,-0.04791259765625,0.04119873046875
0.1159210205078125,0.22308349609375,0.036773681640625,-0.05029296875,0.056121826171875,0.003387451171875
0.11154174804686513,0.27294921874997935,0.12219238281250004,-0.026916503906243068,0.01593017578124959,-0.032806396484376735
-0.168670654296875,0.009628295898437497,0.038787841796875,0.050750732421875,0.05389404296875,-0.036102294921875
-0.9989013671875,0.072479248046875,0.263458251953125,0.085723876953125,0.121490478515625,-0.049896240234375
-0.54547119140625,0.2475433349609375,0.0252532958984375,-0.009643554687499998,0.0614013671875,-0.0810699462890625
-0.135009765625,0.284942626953125,0.069000244140625,0.09161376953125,0.023590087890625,-0.09698486328125
-0.17208862304687592,0.049819946289057254,0.03283691406249778,0.018051147460936612,-0.04077148437500164,0.007446289062500991
-0.052398681640625,-0.27874755859375,-0.267303466796875,-0.026092529296875,-0.01544189453125,0.027984619140625
0.11016845703125414,-0.25112915039062356,-0.09169006347655667,-0.0832824707031243,-0.012405395507812025,0.07069396972656294
-0.011474609375,0.299713134765625,0.122589111328125,0.02154541015625,-0.0020751953125,0.06231689453125
-0.2374420166015625,0.785308837890625,0.1663055419921875,0.0330352783203125,-0.0018157958984375,-0.0161285400390625
-0.5673217773437169,0.19076538085937195,-0.15197753906250866,0.01657104492187655,-0.008819580078124388,0.04766845703124953
-0.1210784912109375,-0.02813720703125,-0.2048797607421875,0.0098876953125,-0.023895263671875,0.0316162109375
-0.467681884765625,0.219329833984375,0.029327392578125,-0.018157958984375,-0.022247314453125,0.110198974609375
-0.4046630859375,0.7104034423828125,-0.4051513671875,-0.011337280273437493,-0.0500640869140625,0.046722412109375

-0.9989013671875,0.072479248046875,0.263458251953125,0.085723876953125,0.121490478515625,-0.049896240234375
-0.54547119140625,0.2475433349609375,0.0252532958984375,-0.009643554687499998,0.0614013671875,-0.0810699462890625
-0.135009765625,0.284942626953125,0.069000244140625,0.09161376953125,0.023590087890625,-0.09698486328125
-0.17208862304687592,0.049819946289057254,0.03283691406249778,0.018051147460936612,-0.04077148437500164,0.007446289062500991
-0.052398681640625,-0.27874755859375,-0.267303466796875,-0.026092529296875,-0.01544189453125,0.027984619140625
0.11016845703125414,-0.25112915039062356,-0.09169006347655667,-0.0832824707031243,-0.012405395507812025,0.07069396972656294
-0.011474609375,0.299713134765625,0.122589111328125,0.02154541015625,-0.0020751953125,0.06231689453125
-0.2374420166015625,0.785308837890625,0.1663055419921875,0.0330352783203125,-0.0018157958984375,-0.0161285400390625
-0.5673217773437169,0.19076538085937195,-0.15197753906250866,0.01657104492187655,-0.008819580078124388,0.04766845703124953
-0.1210784912109375,-0.02813720703125,-0.2048797607421875,0.0098876953125,-0.023895263671875,0.0316162109375
-0.467681884765625,0.219329833984375,0.029327392578125,-0.018157958984375,-0.022247314453125,0.110198974609375
-0.4046630859375,0.7104034423828125,-0.4051513671875,-0.011337280273437493,-0.0500640869140625,0.046722412109375
-0.57550048828125,0.1964111328125,0.9998779296875,-0.16082763671875,-0.23223876953125,0.0169677734375
-0.30230712890623024,0.19233703613282804,0.282073974609367,-0.060729980468750035,-0.034591674804686556,0.03726196289062621
-0.121917724609375,0.179779052734375,0.337432861328125,-0.0540771484375,0.00714111328125,0.026092529296875
-0.10794067382812814,0.06318664550781557,0.06210327148437169,0.029281616210937892,0.04676818847656285,-0.028808593749999344
-0.9998779296875,0.05108642578125,0.22515869140625,0.04705810546875,0.120452880859375,-0.06793212890625
-0.621551513671875,0.1574859619140625,-0.0471649169921875,-0.0428619384765625,0.088043212890625,-0.0633392333984375
-0.16546630859374836,0.5337829589843471,0.03427124023437967,0.06503295898437535,0.023071289062496933,-0.09704589843749359
-0.204193115234375,0.1075897216796875,0.03656005859375,0.0345306396484375,-0.0399932861328125,-0.0057525634765625

-0.5673217773437169,0.19076538085937195,-0.15197753906250866,0.01657104492187655,-0.008819580078124388,0.04766845703124953
-0.1210784912109375,-0.02813720703125,-0.2048797607421875,0.0098876953125,-0.023895263671875,0.0316162109375
-0.467681884765625,0.219329833984375,0.029327392578125,-0.018157958984375,-0.022247314453125,0.110198974609375
-0.4046630859375,0.7104034423828125,-0.4051513671875,-0.011337280273437493,-0.0500640869140625,0.046722412109375
-0.57550048828125,0.1964111328125,0.9998779296875,-0.16082763671875,-0.23223876953125,0.0169677734375
-0.30230712890623024,0.19233703613282804,0.282073974609367,-0.060729980468750035,-0.034591674804686556,0.03726196289062621
-0.121917724609375,0.179779052734375,0.337432861328125,-0.0540771484375,0.00714111328125,0.026092529296875
-0.10794067382812814,0.06318664550781557,0.06210327148437169,0.029281616210937892,0.04676818847656285,-0.028808593749999344
-0.9998779296875,0.05108642578125,0.22515869140625,0.04705810546875,0.120452880859375,-0.06793212890625
-0.621551513671875,0.1574859619140625,-0.0471649169921875,-0.0428619384765625,0.088043212890625,-0.0633392333984375
-0.16546630859374836,0.5337829589843471,0.03427124023437967,0.06503295898437535,0.023071289062496933,-0.09704589843749359
-0.204193115234375,0.1075897216796875,0.03656005859375,0.0345306396484375,-0.0399932861328125,-0.0057525634765625
-0.11114501953125,-0.18988037109375,-0.08245849609375,-0.00689697265625,-0.03192138671875,0.0108642578125
0.082061767578125,-0.270172119140625,-0.1866607666015625,-0.055572509765625,-0.005340576171875,0.0752105712890625
0.001922607421875,0.156890869140625,-0.003326416015625,0.01165771484375,-0.0159912109375,0.0672607421875
-0.03587341308594173,0.49032592773435696,0.11601257324218153,-0.006652832031263073,0.03802490234375897,-0.01945495605469357
-0.013885498046875,-0.091461181640625,-0.050537109375,-0.047454833984375,-0.016387939453125,0.05084228515625
-0.699691772460955,0.3459014892578292,0.018783569335941414,-0.01408386230468859,-0.02682495117187534,0.11793518066406218
-0.2601318359375,0.385650634765625,-0.653167724609375,0.073699951171875,-0.156005859375,-0.000732421875
-0.11456298828125,0.11351013183593751,0.2799224853515625,-0.058837890625,-0.00140380859375,0.0283660888671875

-0.9998779296875,0.05108642578125,0.22515869140625,0.04705810546875,0.120452880859375,-0.06793212890625
-0.621551513671875,0.1574859619140625,-0.0471649169921875,-0.0428619384765625,0.088043212890625,-0.0633392333984375
-0.16546630859374836,0.5337829589843471,0.03427124023437967,0.06503295898437535,0.023071289062496933,-0.09704589843749359
-0.204193115234375,0.1075897216796875,0.03656005859375,0.0345306396484375,-0.0399932861328125,-0.0057525634765625
-0.11114501953125,-0.18988037109375,-0.08245849609375,-0.00689697265625,-0.03192138671875,0.0108642578125
0.082061767578125,-0.270172119140625,-0.1866607666015625,-0.055572509765625,-0.005340576171875,0.0752105712890625
0.001922607421875,0.156890869140625,-0.003326416015625,0.01165771484375,-0.0159912109375,0.0672607421875
-0.03587341308594173,0.49032592773435696,0.11601257324218153,-0.006652832031263073,0.03802490234375897,-0.01945495605469357
-0.013885498046875,-0.091461181640625,-0.050537109375,-0.047454833984375,-0.016387939453125,0.05084228515625
-0.699691772460955,0.3459014892578292,0.018783569335941414,-0.01408386230468859,-0.02682495117187534,0.11793518066406218
-0.2601318359375,0.385650634765625,-0.653167724609375,0.073699951171875,-0.156005859375,-0.000732421875
-0.11456298828125,0.11351013183593751,0.2799224853515625,-0.058837890625,-0.00140380859375,0.0283660888671875
0.11947631835937955,0.3940124511718599,0.2793273925781137,-0.0899658203124902,0.043273925781248675,-0.028808593750001374
-0.0691070556640625,0.0053558349609375,0.1350860595703125,0.0550994873046875,0.01751708984375,-0.041290283203125
-0.148223876953125,0.045745849609375,0.04901123046875,0.046600341796875,0.041748046875,-0.021881103515625
-0.2706756591796875,0.44549560546875,-0.2393798828125,0.046356201171875,0.0668792724609375,-0.0396575927734375
-0.9998779296875,-0.144622802734375,0.082672119140625,-0.052154541015625,0.06878662109375,-0.0848388671875
-0.079635620117193,0.12689208984375247,0.04388427734374922,0.04707336425780931,0.005249023437497636,-0.02992248535155827
-0.148956298828125,-0.208648681640625,-0.11505126953125,-0.004150390625,0.005859375,0.0308837890625
-0.04342651367186254,0.42216491699215686,-0.1192474365234425,0.001998901367183087,0.0037231445312537817,-0.014389038085941261

-0.013885498046875,-0.091461181640625,-0.050537109375,-0.047454833984375,-0.016387939453125,0.05084228515625
-0.699691772460955,0.3459014892578292,0.018783569335941414,-0.01408386230468859,-0.02682495117187534,0.11793518066406218
-0.2601318359375,0.385650634765625,-0.653167724609375,0.073699951171875,-0.156005859375,-0.000732421875
-0.11456298828125,0.11351013183593751,0.2799224853515625,-0.058837890625,-0.00140380859375,0.0283660888671875
0.11947631835937955,0.3940124511718599,0.2793273925781137,-0.0899658203124902,0.043273925781248675,-0.028808593750001374
-0.0691070556640625,0.0053558349609375,0.1350860595703125,0.0550994873046875,0.01751708984375,-0.041290283203125
-0.148223876953125,0.045745849609375,0.04901123046875,0.046600341796875,0.041748046875,-0.021881103515625
-0.2706756591796875,0.44549560546875,-0.2393798828125,0.046356201171875,0.0668792724609375,-0.0396575927734375
-0.9998779296875,-0.144622802734375,0.082672119140625,-0.052154541015625,0.06878662109375,-0.0848388671875
-0.079635620117193,0.12689208984375247,0.04388427734374922,0.04707336425780931,0.005249023437497636,-0.02992248535155827
-0.148956298828125,-0.208648681640625,-0.11505126953125,-0.004150390625,0.005859375,0.0308837890625
-0.04342651367186254,0.42216491699215686,-0.1192474365234425,0.001998901367183087,0.0037231445312537817,-0.014389038085941261
-0.853515625,-0.202850341796875,0.200897216796875,-0.010040283203125,-0.053436279296875,0.025054931640625
-0.18939208984375,0.12034606933593749,-0.139739990234375,-0.02496337890625,-0.00860595703125,0.0393218994140625
-0.23858642578127273,0.049591064453202056,-0.02108764648442033,-0.04766845703124985,-0.026000976562503424,0.07739257812499176
-0.2016448974609375,0.103729248046875,-0.1266937255859375,-0.015899658203125,-0.1603240966796875,-0.002410888671875
-0.253021240234375,0.114990234375,0.208160400390625,-0.06072998046875,-0.026641845703125,0.02587890625
0.0394287109375,0.17144775390625,0.16229248046875,-0.021087646484375,0.0243682861328125,0.0116729736328125
-0.89312744140625,0.08306884765625,0.21478271484375,-0.01385498046875,0.1038818359375,-0.07464599609375
-0.15293884277344008,-0.06970214843752186,-0.06867980957033562,-0.03961181640625569,-0.025588989257811282,0.03129577636718915

-0.9998779296875,-0.144622802734375,0.082672119140625,-0.052154541015625,0.06878662109375,-0.0848388671875
-0.079635620117193,0.12689208984375247,0.04388427734374922,0.04707336425780931,0.005249023437497636,-0.02992248535155827
-0.148956298828125,-0.208648681640625,-0.11505126953125,-0.004150390625,0.005859375,0.0308837890625
-0.04342651367186254,0.42216491699215686,-0.1192474365234425,0.001998901367183087,0.0037231445312537817,-0.014389038085941261
-0.853515625,-0.202850341796875,0.200897216796875,-0.010040283203125,-0.053436279296875,0.025054931640625
-0.18939208984375,0.12034606933593749,-0.139739990234375,-0.02496337890625,-0.00860595703125,0.0393218994140625
-0.23858642578127273,0.049591064453202056,-0.02108764648442033,-0.04766845703124985,-0.026000976562503424,0.07739257812499176
-0.2016448974609375,0.103729248046875,-0.1266937255859375,-0.015899658203125,-0.1603240966796875,-0.002410888671875
-0.253021240234375,0.114990234375,0.208160400390625,-0.06072998046875,-0.026641845703125,0.02587890625
0.0394287109375,0.17144775390625,0.16229248046875,-0.021087646484375,0.0243682861328125,0.0116729736328125
-0.89312744140625,0.08306884765625,0.21478271484375,-0.01385498046875,0.1038818359375,-0.07464599609375
-0.15293884277344008,-0.06970214843752186,-0.06867980957033562,-0.03961181640625569,-0.025588989257811282,0.03129577636718915
0.08221435546875,-0.1431884765625,-0.000946044921875,-0.00799560546875,0.00396728515625,0.082550048828125
0.025207519531252127,0.10716247558591568,-0.018112182617194564,-0.036117553710934606,0.03921508789062447,-0.040405273437500194
-0.08880615234375,0.4849853515625,-0.246307373046875,-0.021697998046875,-0.0252685546875,-0.016998291015625
-0.109100341796875,-0.0001678466796875,0.1597900390625,-0.0436859130859375,-0.01220703125,0.06146240234375
-0.8032226562499489,0.8049011230468197,-0.24530029296876996,-0.049133300781239564,-0.03750610351562655,0.054565429687495774
-0.3743743896484375,0.074188232421875,-0.171630859375,0.0321197509765625,-0.1091461181640625,0.0162811279296875
-0.093963623046875,0.266571044921875,0.2860107421875,-0.032867431640625,0.007110595703125,0.023590087890625
0.108673095703125,0.1031036376953125,-0.03338623046874999,-0.0018005371093750035,0.04205322265625,-0.019805908203125

-0.253021240234375,0.114990234375,0.208160400390625,-0.06072998046875,-0.026641845703125,0.02587890625
0.0394287109375,0.17144775390625,0.16229248046875,-0.021087646484375,0.0243682861328125,0.0116729736328125
-0.89312744140625,0.08306884765625,0.21478271484375,-0.01385498046875,0.1038818359375,-0.07464599609375
-0.15293884277344008,-0.06970214843752186,-0.06867980957033562,-0.03961181640625569,-0.025588989257811282,0.03129577636718915
0.08221435546875,-0.1431884765625,-0.000946044921875,-0.00799560546875,0.00396728515625,0.082550048828125
0.025207519531252127,0.10716247558591568,-0.018112182617194564,-0.036117553710934606,0.03921508789062447,-0.040405273437500194
-0.08880615234375,0.4849853515625,-0.246307373046875,-0.021697998046875,-0.0252685546875,-0.016998291015625
-0.109100341796875,-0.0001678466796875,0.1597900390625,-0.0436859130859375,-0.01220703125,0.06146240234375
-0.8032226562499489,0.8049011230468197,-0.24530029296876996,-0.049133300781239564,-0.03750610351562655,0.054565429687495774
-0.3743743896484375,0.074188232421875,-0.171630859375,0.0321197509765625,-0.1091461181640625,0.0162811279296875
-0.093963623046875,0.266571044921875,0.2860107421875,-0.032867431640625,0.007110595703125,0.023590087890625
0.108673095703125,0.1031036376953125,-0.03338623046874999,-0.0018005371093750035,0.04205322265625,-0.019805908203125
-0.2313232421875,0.162994384765625,-0.10491943359375,0.0404052734375,0.058685302734375,-0.025482177734375
-0.8071899414062842,0.36509704589843067,0.15321350097658912,0.10865783691406165,0.09948730468749586,-0.06419372558594068
-0.691802978515625,0.275543212890625,-0.084808349609375,0.063232421875,0.00677490234375,-0.113616943359375
-0.08036804199218107,0.21240234374999326,0.05464172363281482,0.07841491699218747,0.01586914062499978,-0.07971191406249917
0.06396484375,-0.147491455078125,-0.034820556640625,-0.0419921875,0.024871826171875,0.0755615234375
-0.8677520751953125,0.0996246337890625,0.166107177734375,-0.030548095703125,-0.03466796875,0.0120849609375
-0.050811767578131786,-0.08969116210936906,-0.3387756347656123,0.01751708984374311,-0.000122070312500103,0.002868652343753326
-0.61474609375,0.4477386474609375,0.11553955078125,-0.0426483154296875,-0.00848388671875,0.10626220703125

-0.8032226562499489,0.8049011230468197,-0.24530029296876996,-0.049133300781239564,-0.03750610351562655,0.054565429687495774
-0.3743743896484375,0.074188232421875,-0.171630859375,0.0321197509765625,-0.1091461181640625,0.0162811279296875
-0.093963623046875,0.266571044921875,0.2860107421875,-0.032867431640625,0.007110595703125,0.023590087890625
0.108673095703125,0.1031036376953125,-0.03338623046874999,-0.0018005371093750035,0.04205322265625,-0.019805908203125
-0.2313232421875,0.162994384765625,-0.10491943359375,0.0404052734375,0.058685302734375,-0.025482177734375
-0.8071899414062842,0.36509704589843067,0.15321350097658912,0.10865783691406165,0.09948730468749586,-0.06419372558594068
-0.691802978515625,0.275543212890625,-0.084808349609375,0.063232421875,0.00677490234375,-0.113616943359375
-0.08036804199218107,0.21240234374999326,0.05464172363281482,0.07841491699218747,0.01586914062499978,-0.07971191406249917
0.06396484375,-0.147491455078125,-0.034820556640625,-0.0419921875,0.024871826171875,0.0755615234375
-0.8677520751953125,0.0996246337890625,0.166107177734375,-0.030548095703125,-0.03466796875,0.0120849609375
-0.050811767578131786,-0.08969116210936906,-0.3387756347656123,0.01751708984374311,-0.000122070312500103,0.002868652343753326
-0.61474609375,0.4477386474609375,0.11553955078125,-0.0426483154296875,-0.00848388671875,0.10626220703125
-0.3511962890625,0.008270263671875,-0.178314208984375,-0.149810791015625,-0.190582275390625,0.034027099609375
-0.3533477783203125,0.18597412109375,0.225128173828125,-0.0089874267578125,-0.055572509765625,0.026031494140625
0.0631103515625,0.184112548828125,0.18707275390625,0.00018310546875,0.017852783203125,0.008270263671875
-0.20587158203126887,0.15870666503908187,0.021957397460911188,0.04571533203125219,0.04629516601562757,-0.030364990234373314
-0.947235107421875,-0.05718994140625,0.194671630859375,-0.06243896484375,0.11529541015625,-0.0657958984375
-0.08464050292967852,0.3667449951171755,0.0017700195312576605,0.06813049316406582,0.015991210937497998,-0.060165405273437104
-0.1539306640625,0.054412841796875,0.027618408203125,-0.007659912109375,-0.05267333984375,0.012908935546875
-0.1119842529296875,-0.2280120849609375,-0.208984375,-0.0440216064453125,-0.0307159423828125,0.0455169677734375

0.06396484375,-0.147491455078125,-0.034820556640625,-0.0419921875,0.024871826171875,0.0755615234375
-0.8677520751953125,0.0996246337890625,0.166107177734375,-0.030548095703125,-0.03466796875,0.0120849609375
-0.050811767578131786,-0.08969116210936906,-0.3387756347656123,0.01751708984374311,-0.000122070312500103,0.002868652343753326
-0.61474609375,0.4477386474609375,0.11553955078125,-0.0426483154296875,-0.00848388671875,0.10626220703125
-0.3511962890625,0.008270263671875,-0.178314208984375,-0.149810791015625,-0.190582275390625,0.034027099609375
-0.3533477783203125,0.18597412109375,0.225128173828125,-0.0089874267578125,-0.055572509765625,0.026031494140625
0.0631103515625,0.184112548828125,0.18707275390625,0.00018310546875,0.017852783203125,0.008270263671875
-0.20587158203126887,0.15870666503908187,0.021957397460911188,0.04571533203125219,0.04629516601562757,-0.030364990234373314
-0.947235107421875,-0.05718994140625,0.194671630859375,-0.06243896484375,0.11529541015625,-0.0657958984375
-0.08464050292967852,0.3667449951171755,0.0017700195312576605,0.06813049316406582,0.015991210937497998,-0.060165405273437104
-0.1539306640625,0.054412841796875,0.027618408203125,-0.007659912109375,-0.05267333984375,0.012908935546875
-0.1119842529296875,-0.2280120849609375,-0.208984375,-0.0440216064453125,-0.0307159423828125,0.0455169677734375
0.06304931640626069,-0.15255737304685765,-0.021667480468746187,-0.0460815429687431,0.03363037109374888,0.08938598632812392
-0.0459442138671875,0.3189697265625,0.148101806640625,0.0008392333984375,-0.0106048583984375,0.012969970703125
0.03289794921875,0.23699951171875,-0.006072998046875,-0.058746337890625,0.05194091796875,-0.041015625
-0.2822418212890625,-0.1790618896484375,0.0379180908203125,-0.015594482421875,0.0072174072265625,-0.0143585205078125
-0.312530517578125,0.55572509765625,-0.306976318359375,0.058319091796875,-0.056365966796875,0.02777099609375
-0.11976623535158405,0.20727539062499759,0.15089416503908198,-0.059555053710935425,-0.01571655273437205,0.047622680664069474
-0.370819091796875,0.40008544921875,-0.560455322265625,-0.0589599609375,-0.083709716796875,0.029937744140625
-0.3014373779296848,0.12316894531250316,0.42973327636723413,-0.003417968750004767,-0.13534545898437617,0.025711059570312174

-0.947235107421875,-0.05718994140625,0.194671630859375,-0.06243896484375,0.11529541015625,-0.0657958984375
-0.08464050292967852,0.3667449951171755,0.0017700195312576605,0.06813049316406582,0.015991210937497998,-0.060165405273437104
-0.1539306640625,0.054412841796875,0.027618408203125,-0.007659912109375,-0.05267333984375,0.012908935546875
-0.1119842529296875,-0.2280120849609375,-0.208984375,-0.0440216064453125,-0.0307159423828125,0.0455169677734375
0.06304931640626069,-0.15255737304685765,-0.021667480468746187,-0.0460815429687431,0.03363037109374888,0.08938598632812392
-0.0459442138671875,0.3189697265625,0.148101806640625,0.0008392333984375,-0.0106048583984375,0.012969970703125
0.03289794921875,0.23699951171875,-0.006072998046875,-0.058746337890625,0.05194091796875,-0.041015625
-0.2822418212890625,-0.1790618896484375,0.0379180908203125,-0.015594482421875,0.0072174072265625,-0.0143585205078125
-0.312530517578125,0.55572509765625,-0.306976318359375,0.058319091796875,-0.056365966796875,0.02777099609375
-0.11976623535158405,0.20727539062499759,0.15089416503908198,-0.059555053710935425,-0.01571655273437205,0.047622680664069474
-0.370819091796875,0.40008544921875,-0.560455322265625,-0.0589599609375,-0.083709716796875,0.029937744140625
-0.3014373779296848,0.12316894531250316,0.42973327636723413,-0.003417968750004767,-0.13534545898437617,0.025711059570312174
-0.330657958984375,0.05914306640625,0.2071533203125,-0.05767822265625,-0.023590087890625,0.032806396484375
-0.0161590576171875,0.2596588134765625,0.116790771484375,-0.0419158935546875,0.0446014404296875,0.0035858154296875
0.1278076171874967,0.2692260742187391,0.18832397460936506,-0.03866577148436994,0.03274536132812457,-0.024688720703126155
-0.080047607421875,0.0508575439453125,0.0475311279296875,0.039520263671875,0.0469970703125,-0.039093017578125
-0.827667236328125,0.065460205078125,0.12286376953125,-0.003448486328125,0.09112548828125,-0.063690185546875
-0.266815185546875,0.3510589599609375,-0.0976104736328125,0.0356597900390625,0.0501251220703125,-0.10113525390625
-0.1612548828125,0.382720947265625,0.134979248046875,0.088470458984375,0.004058837890625,-0.103851318359375
-0.2131195068359369,0.13320922851561612,0.06582641601562222,0.0393218994140612,-0.028076171875000666,-0.02001953124999941

-0.312530517578125,0.55572509765625,-0.306976318359375,0.058319091796875,-0.056365966796875,0.02777099609375
-0.11976623535158405,0.20727539062499759,0.15089416503908198,-0.059555053710935425,-0.01571655273437205,0.047622680664069474
-0.370819091796875,0.40008544921875,-0.560455322265625,-0.0589599609375,-0.083709716796875,0.029937744140625
-0.3014373779296848,0.12316894531250316,0.42973327636723413,-0.003417968750004767,-0.13534545898437617,0.025711059570312174
-0.330657958984375,0.05914306640625,0.2071533203125,-0.05767822265625,-0.023590087890625,0.032806396484375
-0.0161590576171875,0.2596588134765625,0.116790771484375,-0.0419158935546875,0.0446014404296875,0.0035858154296875
0.1278076171874967,0.2692260742187391,0.18832397460936506,-0.03866577148436994,0.03274536132812457,-0.024688720703126155
-0.080047607421875,0.0508575439453125,0.0475311279296875,0.039520263671875,0.0469970703125,-0.039093017578125
-0.827667236328125,0.065460205078125,0.12286376953125,-0.003448486328125,0.09112548828125,-0.063690185546875
-0.266815185546875,0.3510589599609375,-0.0976104736328125,0.0356597900390625,0.0501251220703125,-0.10113525390625
-0.1612548828125,0.382720947265625,0.134979248046875,0.088470458984375,0.004058837890625,-0.103851318359375
-0.2131195068359369,0.13320922851561612,0.06582641601562222,0.0393218994140612,-0.028076171875000666,-0.02001953124999941
-0.07000732421875,0.42559814453125,0.004669189453125,0.031707763671875,0.001953125,0.046417236328125
-0.1076354980468821,0.03465270996093464,0.02893066406250891,0.003128051757812211,0.07952880859374896,-0.0494079589843744
-0.23858642578125,0.323638916015625,-0.291168212890625,0.05792236328125,-0.00653076171875,0.025909423828125
-0.021728515625,-0.0092620849609375,0.070343017578125,-0.067047119140625,-0.0095367431640625,0.04620361328125
-0.5387573242187469,0.4636840820312662,-0.010101318359397739,-0.04946899414062241,-0.009643554687502328,0.08422851562499468
-0.2845306396484375,0.12652587890625,-0.002471923828125,-0.0063629150390625,-0.101593017578125,0.0068511962890625
-0.398406982421875,0.18597412109375,0.33526611328125,0.04437255859375,-0.06036376953125,0.0279541015625
-0.0511322021484375,0.256103515625,0.1783447265625,-0.045440673828125,0.0143890380859375,0.02130126953125

-0.827667236328125,0.065460205078125,0.12286376953125,-0.003448486328125,0.09112548828125,-0.063690185546875
-0.266815185546875,0.3510589599609375,-0.0976104736328125,0.0356597900390625,0.0501251220703125,-0.10113525390625
-0.1612548828125,0.382720947265625,0.134979248046875,0.088470458984375,0.004058837890625,-0.103851318359375
-0.2131195068359369,0.13320922851561612,0.06582641601562222,0.0393218994140612,-0.028076171875000666,-0.02001953124999941
-0.07000732421875,0.42559814453125,0.004669189453125,0.031707763671875,0.001953125,0.046417236328125
-0.1076354980468821,0.03465270996093464,0.02893066406250891,0.003128051757812211,0.07952880859374896,-0.0494079589843744
-0.23858642578125,0.323638916015625,-0.291168212890625,0.05792236328125,-0.00653076171875,0.025909423828125
-0.021728515625,-0.0092620849609375,0.070343017578125,-0.067047119140625,-0.0095367431640625,0.04620361328125
-0.5387573242187469,0.4636840820312662,-0.010101318359397739,-0.04946899414062241,-0.009643554687502328,0.08422851562499468
-0.2845306396484375,0.12652587890625,-0.002471923828125,-0.0063629150390625,-0.101593017578125,0.0068511962890625
-0.398406982421875,0.18597412109375,0.33526611328125,0.04437255859375,-0.06036376953125,0.0279541015625
-0.0511322021484375,0.256103515625,0.1783447265625,-0.045440673828125,0.0143890380859375,0.02130126953125
0.153778076171875,0.23870849609375,0.133941650390625,-0.003997802734375,0.0059814453125,-0.021728515625
-0.16093444824219466,0.01419067382813019,0.01542663574218547,0.058746337890624015,0.03509521484374981,-0.03245544433593617
-0.13397216796875,0.26287841796875,-0.162841796875,-0.00469970703125,0.027130126953125,0.01959228515625
-0.9607543945312534,0.24485778808591954,0.05270385742187673,0.06819152832031382,0.08337402343749807,-0.09167480468750092
-0.195556640625,0.3426513671875,0.138580322265625,0.060394287109375,-0.027587890625,-0.038177490234375
-0.138122558593759,-0.08230590820313077,0.014312744140619584,0.02481079101562226,-0.04344177246093881,0.017410278320313326
-0.137115478515625,-0.17083740234375,-0.114044189453125,-0.0164794921875,-0.02508544921875,0.036376953125
-0.04969787597656271,-0.22689819335937056,-0.21159362792968456,-0.09394836425781353,-0.010574340820312025,0.07716369628906312

-0.5387573242187469,0.4636840820312662,-0.010101318359397739,-0.04946899414062241,-0.009643554687502328,0.08422851562499468
-0.2845306396484375,0.12652587890625,-0.002471923828125,-0.0063629150390625,-0.101593017578125,0.0068511962890625
-0.398406982421875,0.18597412109375,0.33526611328125,0.04437255859375,-0.06036376953125,0.0279541015625
-0.0511322021484375,0.256103515625,0.1783447265625,-0.045440673828125,0.0143890380859375,0.02130126953125
0.153778076171875,0.23870849609375,0.133941650390625,-0.003997802734375,0.0059814453125,-0.021728515625
-0.16093444824219466,0.01419067382813019,0.01542663574218547,0.058746337890624015,0.03509521484374981,-0.03245544433593617
-0.13397216796875,0.26287841796875,-0.162841796875,-0.00469970703125,0.027130126953125,0.01959228515625
-0.9607543945312534,0.24485778808591954,0.05270385742187673,0.06819152832031382,0.08337402343749807,-0.09167480468750092
-0.195556640625,0.3426513671875,0.138580322265625,0.060394287109375,-0.027587890625,-0.038177490234375
-0.138122558593759,-0.08230590820313077,0.014312744140619584,0.02481079101562226,-0.04344177246093881,0.017410278320313326
-0.137115478515625,-0.17083740234375,-0.114044189453125,-0.0164794921875,-0.02508544921875,0.036376953125
-0.04969787597656271,-0.22689819335937056,-0.21159362792968456,-0.09394836425781353,-0.010574340820312025,0.07716369628906312
0.00103759765625,-0.019561767578125,0.0606689453125,-0.0367431640625,0.014617919921875,0.067474365234375
-0.09442138671874194,0.5661163330077789,0.10261535644528594,0.022888183593753327,-0.016372680664059103,0.030136108398442076
0.06939697265625,0.0621337890625,-0.26068115234375,-0.0057373046875,0.054595947265625,-0.062744140625
-0.5947113037108981,0.09790039062503075,-0.023712158203150646,0.02445983886718904,-0.00901794433593528,0.040008544921874764
-0.486541748046884,0.2563476562500178,0.04455566406248835,-0.04553222656249893,-0.0023498535156236122,0.07550048828124988
-0.3871612548828331,0.2767181396484697,-0.104766845703131,-0.016921997070311764,-0.08570861816404579,0.03654479980469222
-0.4482421875,0.31195068359375,0.303619384765625,-0.046356201171875,-0.13128662109375,0.029144287109375
-0.25500488281249295,0.13107299804687655,0.2353668212890569,-0.06379699707031272,-0.017120361328123033,0.034362792968750354

-0.195556640625,0.3426513671875,0.138580322265625,0.060394287109375,-0.027587890625,-0.038177490234375
-0.138122558593759,-0.08230590820313077,0.014312744140619584,0.02481079101562226,-0.04344177246093881,0.017410278320313326
-0.137115478515625,-0.17083740234375,-0.114044189453125,-0.0164794921875,-0.02508544921875,0.036376953125
-0.04969787597656271,-0.22689819335937056,-0.21159362792968456,-0.09394836425781353,-0.010574340820312025,0.07716369628906312
0.00103759765625,-0.019561767578125,0.0606689453125,-0.0367431640625,0.014617919921875,0.067474365234375
-0.09442138671874194,0.5661163330077789,0.10261535644528594,0.022888183593753327,-0.016372680664059103,0.030136108398442076
0.06939697265625,0.0621337890625,-0.26068115234375,-0.0057373046875,0.054595947265625,-0.062744140625
-0.5947113037108981,0.09790039062503075,-0.023712158203150646,0.02445983886718904,-0.00901794433593528,0.040008544921874764
-0.486541748046884,0.2563476562500178,0.04455566406248835,-0.04553222656249893,-0.0023498535156236122,0.07550048828124988
-0.3871612548828331,0.2767181396484697,-0.104766845703131,-0.016921997070311764,-0.08570861816404579,0.03654479980469222
-0.4482421875,0.31195068359375,0.303619384765625,-0.046356201171875,-0.13128662109375,0.029144287109375
-0.25500488281249295,0.13107299804687655,0.2353668212890569,-0.06379699707031272,-0.017120361328123033,0.034362792968750354
0.077880859375,0.27960205078125,0.0673828125,-0.013275146484375,0.049407958984375,0.01190185546875
0.14054870605468184,0.3001098632812505,0.13340759277343642,-0.01776123046875161,0.030761718750001762,-0.03837585449218758
-0.3282470703125,0.107574462890625,0.011322021484375,0.067840576171875,0.038360595703125,-0.021759033203125
-0.3998107910156038,0.27790832519531317,-0.05982971191406502,0.03750610351562248,0.05299377441406007,-0.033050537109372
-0.618255615234375,0.066162109375,0.036712646484375,0.01214599609375,0.107147216796875,-0.093231201171875
-0.2870330810546744,0.29350280761719616,0.0455932617187694,0.06842041015624858,0.029724121093748307,-0.09094238281249839
-0.1815795898437514,0.3348083496093405,0.15911865234373945,0.057922363281249306,-0.002746582031256115,-0.05676269531249527
-0.0527343750000059,-0.0371704101562388,-0.009994506835930589,0.04272460937500026,-0.04742431640624994,-0.01611328125000117

-0.486541748046884,0.2563476562500178,0.04455566406248835,-0.04553222656249893,-0.0023498535156236122,0.07550048828124988
-0.3871612548828331,0.2767181396484697,-0.104766845703131,-0.016921997070311764,-0.08570861816404579,0.03654479980469222
-0.4482421875,0.31195068359375,0.303619384765625,-0.046356201171875,-0.13128662109375,0.029144287109375
-0.25500488281249295,0.13107299804687655,0.2353668212890569,-0.06379699707031272,-0.017120361328123033,0.034362792968750354
0.077880859375,0.27960205078125,0.0673828125,-0.013275146484375,0.049407958984375,0.01190185546875
0.14054870605468184,0.3001098632812505,0.13340759277343642,-0.01776123046875161,0.030761718750001762,-0.03837585449218758
-0.3282470703125,0.107574462890625,0.011322021484375,0.067840576171875,0.038360595703125,-0.021759033203125
-0.3998107910156038,0.27790832519531317,-0.05982971191406502,0.03750610351562248,0.05299377441406007,-0.033050537109372
-0.618255615234375,0.066162109375,0.036712646484375,0.01214599609375,0.107147216796875,-0.093231201171875
-0.2870330810546744,0.29350280761719616,0.0455932617187694,0.06842041015624858,0.029724121093748307,-0.09094238281249839
-0.1815795898437514,0.3348083496093405,0.15911865234373945,0.057922363281249306,-0.002746582031256115,-0.05676269531249527
-0.0527343750000059,-0.0371704101562388,-0.009994506835930589,0.04272460937500026,-0.04742431640624994,-0.01611328125000117
-0.02020263671875,-0.339874267578125,-0.233367919921875,-0.031982421875,-0.002532958984375,0.046173095703125
0.05931091308592719,0.04046630859377695,-0.004226684570307945,-0.049545288085931866,-0.011489868164062335,0.05839538574218557
-0.1129150390625,0.456024169921875,-0.046966552734375,-0.022918701171875,0.00115966796875,-0.01239013671875
-0.23547363281253364,0.07882690429686294,0.16725158691408734,-0.018798828124999084,0.0009155273437442199,0.0008544921875037678
-0.234405517578125,0.2491455078125,-0.2156982421875,-0.02032470703125,0.040618896484375,-0.01336669921875
-0.2719268798827852,0.0027313232421580236,-0.10778808593750788,-0.0926361083984426,0.002471923828123602,0.09822082519531046
-0.6839599609375,0.610931396484375,-0.1507568359375,0.0028076171875,-0.03057861328125,0.067962646484375
-0.4071960449218827,0.25628662109373146,0.5645599365233871,0.0008392333984359197,-0.0969696044921818,0.01908874511718877

-0.618255615234375,0.066162109375,0.036712646484375,0.01214599609375,0.107147216796875,-0.093231201171875
-0.2870330810546744,0.29350280761719616,0.0455932617187694,0.06842041015624858,0.029724121093748307,-0.09094238281249839
-0.1815795898437514,0.3348083496093405,0.15911865234373945,0.057922363281249306,-0.002746582031256115,-0.05676269531249527
-0.0527343750000059,-0.0371704101562388,-0.009994506835930589,0.04272460937500026,-0.04742431640624994,-0.01611328125000117
-0.02020263671875,-0.339874267578125,-0.233367919921875,-0.031982421875,-0.002532958984375,0.046173095703125
0.05931091308592719,0.04046630859377695,-0.004226684570307945,-0.049545288085931866,-0.011489868164062335,0.05839538574218557
-0.1129150390625,0.456024169921875,-0.046966552734375,-0.022918701171875,0.00115966796875,-0.01239013671875
-0.23547363281253364,0.07882690429686294,0.16725158691408734,-0.018798828124999084,0.0009155273437442199,0.0008544921875037678
-0.234405517578125,0.2491455078125,-0.2156982421875,-0.02032470703125,0.040618896484375,-0.01336669921875
-0.2719268798827852,0.0027313232421580236,-0.10778808593750788,-0.0926361083984426,0.002471923828123602,0.09822082519531046
-0.6839599609375,0.610931396484375,-0.1507568359375,0.0028076171875,-0.03057861328125,0.067962646484375
-0.4071960449218827,0.25628662109373146,0.5645599365233871,0.0008392333984359197,-0.0969696044921818,0.01908874511718877
-0.2010498046875,0.07275390625,0.23431396484375,-0.080291748046875,0.0128173828125,0.02618408203125
-0.014663696289064167,0.23329162597655684,0.19393920898438394,-0.018478393554687757,0.019851684570310925,0.011657714843750812
0.069122314453125,0.146514892578125,0.1624755859375,-0.012420654296875,0.0439453125,-0.03851318359375
-0.2869262695312571,0.022857666015630634,-0.01887512207031554,0.08782958984374904,0.04463195800781307,-0.02941894531249841
-0.739898681640625,0.33843994140625,-0.087890625,0.078399658203125,0.043426513671875,-0.1339111328125
-0.20228576660155595,0.12313842773437678,0.1040191650390683,0.08441162109374524,0.016387939453127005,-0.08038330078124659
-0.141754150390625,0.249176025390625,0.107818603515625,0.035858154296875,-0.0289306640625,-0.001007080078125
-0.1422576904296839,-0.14851379394530495,-0.14616394042968572,0.008941650390627564,-0.03790283203125165,0.020736694335936466

-0.234405517578125,0.2491455078125,-0.2156982421875,-0.02032470703125,0.040618896484375,-0.01336669921875
-0.2719268798827852,0.0027313232421580236,-0.10778808593750788,-0.0926361083984426,0.002471923828123602,0.09822082519531046
-0.6839599609375,0.610931396484375,-0.1507568359375,0.0028076171875,-0.03057861328125,0.067962646484375
-0.4071960449218827,0.25628662109373146,0.5645599365233871,0.0008392333984359197,-0.0969696044921818,0.01908874511718877
-0.2010498046875,0.07275390625,0.23431396484375,-0.080291748046875,0.0128173828125,0.02618408203125
-0.014663696289064167,0.23329162597655684,0.19393920898438394,-0.018478393554687757,0.019851684570310925,0.011657714843750812
0.069122314453125,0.146514892578125,0.1624755859375,-0.012420654296875,0.0439453125,-0.03851318359375
-0.2869262695312571,0.022857666015630634,-0.01887512207031554,0.08782958984374904,0.04463195800781307,-0.02941894531249841
-0.739898681640625,0.33843994140625,-0.087890625,0.078399658203125,0.043426513671875,-0.1339111328125
-0.20228576660155595,0.12313842773437678,0.1040191650390683,0.08441162109374524,0.016387939453127005,-0.08038330078124659
-0.141754150390625,0.249176025390625,0.107818603515625,0.035858154296875,-0.0289306640625,-0.001007080078125
-0.1422576904296839,-0.14851379394530495,-0.14616394042968572,0.008941650390627564,-0.03790283203125165,0.020736694335936466
-0.049560546875,-0.42034912109375,-0.29669189453125,-0.071044921875,-0.016754150390625,0.07025146484375
0.06619262695312514,-0.08189392089842558,-0.0021820068359338467,-0.04241943359374481,-0.0026397705078121773,0.09489440917968678
-0.20758056640625,0.670623779296875,-0.031890869140625,0.0228271484375,-0.00482177734375,0.01300048828125
0.055511474609382924,-0.01750183105465586,-0.10781860351562618,-0.07109069824218822,0.038604736328126894,-0.04441833496093828
-0.9998779296875,0.01544189453125,0.129486083984375,0.070892333984375,-0.095245361328125,0.057342529296875
-0.08840942382810822,0.3090209960937381,-0.26390075683587705,-0.053146362304686716,0.02169799804687301,0.03852844238280975
-0.569976806640625,0.42547607421875,-0.117095947265625,-0.055328369140625,0.014678955078125,0.080596923828125
-0.2634429931640346,0.038650512695300565,0.1151733398438558,0.0364990234374898,-0.14253234863281514,-0.0007934570312477067

-0.739898681640625,0.33843994140625,-0.087890625,0.078399658203125,0.043426513671875,-0.1339111328125
-0.20228576660155595,0.12313842773437678,0.1040191650390683,0.08441162109374524,0.016387939453127005,-0.08038330078124659
-0.141754150390625,0.249176025390625,0.107818603515625,0.035858154296875,-0.0289306640625,-0.001007080078125
-0.1422576904296839,-0.14851379394530495,-0.14616394042968572,0.008941650390627564,-0.03790283203125165,0.020736694335936466
-0.049560546875,-0.42034912109375,-0.29669189453125,-0.071044921875,-0.016754150390625,0.07025146484375
0.06619262695312514,-0.08189392089842558,-0.0021820068359338467,-0.04241943359374481,-0.0026397705078121773,0.09489440917968678
-0.20758056640625,0.670623779296875,-0.031890869140625,0.0228271484375,-0.00482177734375,0.01300048828125
0.055511474609382924,-0.01750183105465586,-0.10781860351562618,-0.07109069824218822,0.038604736328126894,-0.04441833496093828
-0.9998779296875,0.01544189453125,0.129486083984375,0.070892333984375,-0.095245361328125,0.057342529296875
-0.08840942382810822,0.3090209960937381,-0.26390075683587705,-0.053146362304686716,0.02169799804687301,0.03852844238280975
-0.569976806640625,0.42547607421875,-0.117095947265625,-0.055328369140625,0.014678955078125,0.080596923828125
-0.2634429931640346,0.038650512695300565,0.1151733398438558,0.0364990234374898,-0.14253234863281514,-0.0007934570312477067
-0.415496826171875,0.205169677734375,0.273681640625,0.026153564453125,-0.121856689453125,0.02337646484375
-0.2834014892578339,0.1361999511718465,0.300888061523431,-0.05706787109374986,-0.012283325195314377,0.030670166015624622
-0.016937255859375,0.27435302734375,0.19378662109375,-0.02435302734375,0.050140380859375,0.01898193359375
0.09436035156249459,0.18444824218747602,0.08329772949216788,0.02165222167969294,0.040145874023435515,-0.04550170898437532
-0.15069580078125,0.304534912109375,-0.17779541015625,0.031951904296875,0.0582275390625,-0.012969970703125
-0.5758209228515281,0.3479919433593699,-0.1352081298828045,-0.0005035400390716108,0.0800323486328102,-0.06318664550781242
-0.682769775390625,0.446441650390625,0.036102294921875,0.099761962890625,0.002685546875,-0.128814697265625
-0.18096923828125078,0.02854919433594935,0.07849121093749906,0.05609130859374528,0.00035095214843399586,-0.0353698730468697

-0.9998779296875,0.01544189453125,0.129486083984375,0.070892333984375,-0.095245361328125,0.057342529296875
-0.08840942382810822,0.3090209960937381,-0.26390075683587705,-0.053146362304686716,0.02169799804687301,0.03852844238280975
-0.569976806640625,0.42547607421875,-0.117095947265625,-0.055328369140625,0.014678955078125,0.080596923828125
-0.2634429931640346,0.038650512695300565,0.1151733398438558,0.0364990234374898,-0.14253234863281514,-0.0007934570312477067
-0.415496826171875,0.205169677734375,0.273681640625,0.026153564453125,-0.121856689453125,0.02337646484375
-0.2834014892578339,0.1361999511718465,0.300888061523431,-0.05706787109374986,-0.012283325195314377,0.030670166015624622
-0.016937255859375,0.27435302734375,0.19378662109375,-0.02435302734375,0.050140380859375,0.01898193359375
0.09436035156249459,0.18444824218747602,0.08329772949216788,0.02165222167969294,0.040145874023435515,-0.04550170898437532
-0.15069580078125,0.304534912109375,-0.17779541015625,0.031951904296875,0.0582275390625,-0.012969970703125
-0.5758209228515281,0.3479919433593699,-0.1352081298828045,-0.0005035400390716108,0.0800323486328102,-0.06318664550781242
-0.682769775390625,0.446441650390625,0.036102294921875,0.099761962890625,0.002685546875,-0.128814697265625
-0.18096923828125078,0.02854919433594935,0.07849121093749906,0.05609130859374528,0.00035095214843399586,-0.0353698730468697
-0.13604736328125,-0.166595458984375,-0.072357177734375,-0.03692626953125,-0.021759033203125,0.029449462890625
0.013687133789062108,-0.09136962890624103,-0.08401489257812016,-0.032653808593744234,-0.007858276367188392,0.0853881835937496
-0.134185791015625,0.360595703125,-0.026123046875,0.023895263671875,-0.002166748046875,0.015289306640625
0.10913085937499567,0.17658996582033062,0.03465270996094989,-0.04011535644531115,0.05960083007812346,-0.042663574218749487
-0.260406494140625,-0.098236083984375,0.171844482421875,-0.045257568359375,-0.009002685546875,-0.0013427734375
-0.15452575683591344,0.23199462890623235,-0.17604064941404543,-0.03343200683593135,-0.013687133789059617,-0.0023040771484367055
-0.049957275390625,0.08837890625,0.115081787109375,-0.03448486328125,-0.014984130859375,0.042510986328125
-0.33663940429689754,0.3942565917969094,-0.5239410400390352,0.013031005859364009,-0.06167602539061855,0.009170532226565132

-0.15069580078125,0.304534912109375,-0.17779541015625,0.031951904296875,0.0582275390625,-0.012969970703125
-0.5758209228515281,0.3479919433593699,-0.1352081298828045,-0.0005035400390716108,0.0800323486328102,-0.06318664550781242
-0.682769775390625,0.446441650390625,0.036102294921875,0.099761962890625,0.002685546875,-0.128814697265625
-0.18096923828125078,0.02854919433594935,0.07849121093749906,0.05609130859374528,0.00035095214843399586,-0.0353698730468697
-0.13604736328125,-0.166595458984375,-0.072357177734375,-0.03692626953125,-0.021759033203125,0.029449462890625
0.013687133789062108,-0.09136962890624103,-0.08401489257812016,-0.032653808593744234,-0.007858276367188392,0.0853881835937496
-0.134185791015625,0.360595703125,-0.026123046875,0.023895263671875,-0.002166748046875,0.015289306640625
0.10913085937499567,0.17658996582033062,0.03465270996094989,-0.04011535644531115,0.05960083007812346,-0.042663574218749487
-0.260406494140625,-0.098236083984375,0.171844482421875,-0.045257568359375,-0.009002685546875,-0.0013427734375
-0.15452575683591344,0.23199462890623235,-0.17604064941404543,-0.03343200683593135,-0.013687133789059617,-0.0023040771484367055
-0.049957275390625,0.08837890625,0.115081787109375,-0.03448486328125,-0.014984130859375,0.042510986328125
-0.33663940429689754,0.3942565917969094,-0.5239410400390352,0.013031005859364009,-0.06167602539061855,0.009170532226565132
-0.375274658203125,0.181060791015625,-0.18243408203125,0.007049560546875,-0.15020751953125,0.02093505859375
-0.3633270263671692,0.02528381347656424,0.2592315673828054,-0.06549072265625151,-0.031753540039061695,0.038146972656252456
-0.081634521484375,0.368408203125,0.26312255859375,-0.023040771484375,0.01959228515625,0.029266357421875
0.09295654296875491,0.24131774902342945,0.003112792968768638,-0.003509521484367513,0.03425598144530862,-0.018234252929690775
-0.3149108886718927,0.09423828125003705,-0.020324707031255388,0.10321044921873888,0.05004882812501005,-0.02740478515625586
-0.7246398925781192,0.1622467041015953,0.2242584228515444,0.006530761718758854,0.12686157226562314,-0.053695678710937264
-0.348907470703125,0.31805419921875,-0.237060546875,0.0155029296875,0.0823974609375,-0.056610107421875
-0.1560211181640715,0.26728820800780617,0.11036682128906267,0.04684448242187314,-0.01440429687500366,-0.037857055664059405

-0.260406494140625,-0.098236083984375,0.171844482421875,-0.045257568359375,-0.009002685546875,-0.0013427734375
-0.15452575683591344,0.23199462890623235,-0.17604064941404543,-0.03343200683593135,-0.013687133789059617,-0.0023040771484367055
-0.049957275390625,0.08837890625,0.115081787109375,-0.03448486328125,-0.014984130859375,0.042510986328125
-0.33663940429689754,0.3942565917969094,-0.5239410400390352,0.013031005859364009,-0.06167602539061855,0.009170532226565132
-0.375274658203125,0.181060791015625,-0.18243408203125,0.007049560546875,-0.15020751953125,0.02093505859375
-0.3633270263671692,0.02528381347656424,0.2592315673828054,-0.06549072265625151,-0.031753540039061695,0.038146972656252456
-0.081634521484375,0.368408203125,0.26312255859375,-0.023040771484375,0.01959228515625,0.029266357421875
0.09295654296875491,0.24131774902342945,0.003112792968768638,-0.003509521484367513,0.03425598144530862,-0.018234252929690775
-0.3149108886718927,0.09423828125003705,-0.020324707031255388,0.10321044921873888,0.05004882812501005,-0.02740478515625586
-0.7246398925781192,0.1622467041015953,0.2242584228515444,0.006530761718758854,0.12686157226562314,-0.053695678710937264
-0.348907470703125,0.31805419921875,-0.237060546875,0.0155029296875,0.0823974609375,-0.056610107421875
-0.1560211181640715,0.26728820800780617,0.11036682128906267,0.04684448242187314,-0.01440429687500366,-0.037857055664059405
-0.067962646484375,-0.2003173828125,-0.097442626953125,-0.06396484375,0.00030517578125,0.056793212890625
0.045806884765618505,-0.076431274414055,-0.11564636230466761,-0.08621215820311807,-0.014297485351562741,0.08351135253906265
-0.135498046875,0.453216552734375,0.242584228515625,0.0052490234375,0.0081787109375,-0.0303955078125
-0.07522583007813077,0.018661499023441077,0.009552001953117936,-0.05992126464843569,0.01181030273437584,0.033065795898439464
-0.45635986328125,0.229705810546875,-0.17767333984375,0.01361083984375,-0.152679443359375,0.040802001953125
-0.459609985351548,0.1975860595703102,0.38706970214843806,0.022369384765619928,-0.08198547363280896,0.026092529296874372
-0.12014770507809001,0.27859497070312506,0.2562561035156142,-0.033538818359372564,0.0028991699218810715,0.028198242187497453
0.13243103027343592,0.26156616210939754,0.03489685058594536,0.005325317382809478,0.02369689941406641,-0.016754150390621315

-0.3149108886718927,0.09423828125003705,-0.020324707031255388,0.10321044921873888,0.05004882812501005,-0.02740478515625586
-0.7246398925781192,0.1622467041015953,0.2242584228515444,0.006530761718758854,0.12686157226562314,-0.053695678710937264
-0.348907470703125,0.31805419921875,-0.237060546875,0.0155029296875,0.0823974609375,-0.056610107421875
-0.1560211181640715,0.26728820800780617,0.11036682128906267,0.04684448242187314,-0.01440429687500366,-0.037857055664059405
-0.067962646484375,-0.2003173828125,-0.097442626953125,-0.06396484375,0.00030517578125,0.056793212890625
0.045806884765618505,-0.076431274414055,-0.11564636230466761,-0.08621215820311807,-0.014297485351562741,0.08351135253906265
-0.135498046875,0.453216552734375,0.242584228515625,0.0052490234375,0.0081787109375,-0.0303955078125
-0.07522583007813077,0.018661499023441077,0.009552001953117936,-0.05992126464843569,0.01181030273437584,0.033065795898439464
-0.45635986328125,0.229705810546875,-0.17767333984375,0.01361083984375,-0.152679443359375,0.040802001953125
-0.459609985351548,0.1975860595703102,0.38706970214843806,0.022369384765619928,-0.08198547363280896,0.026092529296874372
-0.12014770507809001,0.27859497070312506,0.2562561035156142,-0.033538818359372564,0.0028991699218810715,0.028198242187497453
0.13243103027343592,0.26156616210939754,0.03489685058594536,0.005325317382809478,0.02369689941406641,-0.016754150390621315
0.00048828125,0.03460693359375,0.140380859375,0.030975341796875,0.02447509765625,-0.040069580078125
-0.352905273437524,0.3379516601562557,-0.11416625976561451,0.07908630371093575,0.07049560546875325,-0.05171203613281537
-0.72021484375,0.085662841796875,0.096343994140625,0.038970947265625,0.082244873046875,-0.053924560546875
-0.3322906494140509,0.3522644042968786,0.05381774902345035,0.04467773437500676,0.05952453613280728,-0.0682525634765668
0.042510986328125,-0.057525634765625,-0.104248046875,-0.022796630859375,0.081085205078125,-0.056732177734375
-0.13635253906252756,0.10997009277344502,0.0591278076171821,-0.04162597656249492,0.009307861328127028,0.0914764404296905
-0.2254638671875,0.355621337890625,-0.65869140625,0.1119384765625,-0.127197265625,-0.00579833984375
-0.19313049316404507,0.14057922363279646,0.16395568847655037,-0.019515991210939707,-0.010345458984373742,0.01124572753906317

-0.45635986328125,0.229705810546875,-0.17767333984375,0.01361083984375,-0.152679443359375,0.040802001953125
-0.459609985351548,0.1975860595703102,0.38706970214843806,0.022369384765619928,-0.08198547363280896,0.026092529296874372
-0.12014770507809001,0.27859497070312506,0.2562561035156142,-0.033538818359372564,0.0028991699218810715,0.028198242187497453
0.13243103027343592,0.26156616210939754,0.03489685058594536,0.005325317382809478,0.02369689941406641,-0.016754150390621315
0.00048828125,0.03460693359375,0.140380859375,0.030975341796875,0.02447509765625,-0.040069580078125
-0.352905273437524,0.3379516601562557,-0.11416625976561451,0.07908630371093575,0.07049560546875325,-0.05171203613281537
-0.72021484375,0.085662841796875,0.096343994140625,0.038970947265625,0.082244873046875,-0.053924560546875
-0.3322906494140509,0.3522644042968786,0.05381774902345035,0.04467773437500676,0.05952453613280728,-0.0682525634765668
0.042510986328125,-0.057525634765625,-0.104248046875,-0.022796630859375,0.081085205078125,-0.056732177734375
-0.13635253906252756,0.10997009277344502,0.0591278076171821,-0.04162597656249492,0.009307861328127028,0.0914764404296905
-0.2254638671875,0.355621337890625,-0.65869140625,0.1119384765625,-0.127197265625,-0.00579833984375
-0.19313049316404507,0.14057922363279646,0.16395568847655037,-0.019515991210939707,-0.010345458984373742,0.01124572753906317
0.02200317382812416,0.2710571289062099,0.20523071289059278,-0.0627746582031047,0.038513183593749674,0.006500244140617768
-0.17269897460936454,0.39332580566405617,-0.0195007324219032,0.038681030273440345,0.04309082031250223,-0.0601348876953072
-0.152008056640625,0.03875732421875,-0.03729248046875,0.02398681640625,-0.04681396484375,0.012176513671875
-0.06716918945311462,-0.27651977539063544,-0.18539428710939254,-0.064743041992193,-0.006011962890624533,0.046661376953127304
-0.982086181640625,0.06329345703125,0.33966064453125,-0.076507568359375,-0.026885986328125,0.0079345703125
-0.33624267578120937,0.3922271728515537,-0.22879028320316985,0.022277832031268152,-0.050567626953137546,0.07118225097655229
-0.484619140625,0.13189697265625,0.41485595703125,0.0548095703125,-0.09576416015625,0.02288818359375
-0.047348022460922956,0.1721343994140766,0.12326049804687797,-0.03424072265624414,0.01826477050781181,0.022323608398437052

0.042510986328125,-0.057525634765625,-0.104248046875,-0.022796630859375,0.081085205078125,-0.056732177734375
-0.13635253906252756,0.10997009277344502,0.0591278076171821,-0.04162597656249492,0.009307861328127028,0.0914764404296905
-0.2254638671875,0.355621337890625,-0.65869140625,0.1119384765625,-0.127197265625,-0.00579833984375
-0.19313049316404507,0.14057922363279646,0.16395568847655037,-0.019515991210939707,-0.010345458984373742,0.01124572753906317
0.02200317382812416,0.2710571289062099,0.20523071289059278,-0.0627746582031047,0.038513183593749674,0.006500244140617768
-0.17269897460936454,0.39332580566405617,-0.0195007324219032,0.038681030273440345,0.04309082031250223,-0.0601348876953072
-0.152008056640625,0.03875732421875,-0.03729248046875,0.02398681640625,-0.04681396484375,0.012176513671875
-0.06716918945311462,-0.27651977539063544,-0.18539428710939254,-0.064743041992193,-0.006011962890624533,0.046661376953127304
-0.982086181640625,0.06329345703125,0.33966064453125,-0.076507568359375,-0.026885986328125,0.0079345703125
-0.33624267578120937,0.3922271728515537,-0.22879028320316985,0.022277832031268152,-0.050567626953137546,0.07118225097655229
-0.484619140625,0.13189697265625,0.41485595703125,0.0548095703125,-0.09576416015625,0.02288818359375
-0.047348022460922956,0.1721343994140766,0.12326049804687797,-0.03424072265624414,0.01826477050781181,0.022323608398437052
-0.058349609375,0.00640869140625,0.12127685546875,0.042694091796875,0.05615234375,-0.03509521484375
-0.331665039062502,0.41925048828125944,-0.11285400390624534,-0.01841735839843918,0.08749389648437558,-0.04649353027343933
-0.9674682617187556,0.11047363281249727,0.1515502929687061,0.03930664062499631,0.10675048828123691,-0.07000732421875167
-0.3078918457031226,0.3395843505859522,0.09083557128907048,0.06999206542968642,0.025177001953124074,-0.09451293945312458
-0.132598876953125,-0.027191162109375,0.015350341796875,-0.003448486328125,-0.052001953125,0.016632080078125
0.01899719238281259,0.04936218261723685,-0.005142211914045874,-0.020812988281236122,-0.0029602050781262247,0.08872985839843645
0.130523681640625,-0.24420166015625,-0.179840087890625,-0.045867919921875,0.1048583984375,-0.064178466796875
-0.6479034423827499,0.448760986328146,-0.33526611328129674,0.04928588867187192,-0.0339660644531318,0.021484374999999323

-0.982086181640625,0.06329345703125,0.33966064453125,-0.076507568359375,-0.026885986328125,0.0079345703125
-0.33624267578120937,0.3922271728515537,-0.22879028320316985,0.022277832031268152,-0.050567626953137546,0.07118225097655229
-0.484619140625,0.13189697265625,0.41485595703125,0.0548095703125,-0.09576416015625,0.02288818359375
-0.047348022460922956,0.1721343994140766,0.12326049804687797,-0.03424072265624414,0.01826477050781181,0.022323608398437052
-0.058349609375,0.00640869140625,0.12127685546875,0.042694091796875,0.05615234375,-0.03509521484375
-0.331665039062502,0.41925048828125944,-0.11285400390624534,-0.01841735839843918,0.08749389648437558,-0.04649353027343933
-0.9674682617187556,0.11047363281249727,0.1515502929687061,0.03930664062499631,0.10675048828123691,-0.07000732421875167
-0.3078918457031226,0.3395843505859522,0.09083557128907048,0.06999206542968642,0.025177001953124074,-0.09451293945312458
-0.132598876953125,-0.027191162109375,0.015350341796875,-0.003448486328125,-0.052001953125,0.016632080078125
0.01899719238281259,0.04936218261723685,-0.005142211914045874,-0.020812988281236122,-0.0029602050781262247,0.08872985839843645
0.130523681640625,-0.24420166015625,-0.179840087890625,-0.045867919921875,0.1048583984375,-0.064178466796875
-0.6479034423827499,0.448760986328146,-0.33526611328129674,0.04928588867187192,-0.0339660644531318,0.021484374999999323
-0.510284423828125,0.393218994140625,-0.00921630859375,-0.12054443359375,-0.00238037109375,0.08831787109375
-0.2801818847656319,0.16259765624998385,-0.3535614013671776,0.1230163574218693,-0.12504577636718806,-0.014068603515622766
-0.4110107421875,0.326324462890625,0.4434814453125,-0.008270263671875,-0.097930908203125,0.01153564453125
-0.07968139648435349,0.16496276855469455,0.15646362304685607,-0.02262878417968354,-0.003540039062494997,0.010009765624997257
-0.9998779296874014,0.48706054687496797,0.1740112304687246,0.21594238281247766,0.05966186523436809,-0.14913940429687242
-0.11006164550781913,0.1502075195312574,0.07533264160155623,0.09086608886719216,0.025375366210940956,-0.08277893066406929
-0.0418701171875,-0.202606201171875,-0.250396728515625,-0.0946044921875,-0.0101318359375,0.064605712890625
-0.004638671875017472,0.26374816894535036,0.06622314453127223,0.036773681640630745,-0.003280639648438625,0.07546997070311906

-0.132598876953125,-0.027191162109375,0.015350341796875,-0.003448486328125,-0.052001953125,0.016632080078125
0.01899719238281259,0.04936218261723685,-0.005142211914045874,-0.020812988281236122,-0.0029602050781262247,0.08872985839843645
0.130523681640625,-0.24420166015625,-0.179840087890625,-0.045867919921875,0.1048583984375,-0.064178466796875
-0.6479034423827499,0.448760986328146,-0.33526611328129674,0.04928588867187192,-0.0339660644531318,0.021484374999999323
-0.510284423828125,0.393218994140625,-0.00921630859375,-0.12054443359375,-0.00238037109375,0.08831787109375
