acc.x,acc.y,acc.z,gyro.x,gyro.y,gyro.z
-0.20440673828125,0.107666015625,-0.003875732421875,0.00543212890625,0.0174560546875,0.0015869140625
-0.2228851318359375,0.0867156982421875,0.006698608398437507,0.00518798828125,0.007568359374999998,0.0016937255859375
-0.217041015625,0.108734130859375,0.003662109375,0.00531005859375,-0.001220703125,0.003753662109375
-0.233123779296875,0.0986785888671875,0.028732299804687497,0.0010223388671875022,5.963111948670274e-19,0.0036163330078124996
-0.235931396484375,0.09552001953125,0.022796630859375,0.00396728515625,0.00079345703125,0.00311279296875
-0.2336578369140625,0.1040496826171875,0.029052734375,0.000732421875,0.0013275146484375,0.0032196044921875
-0.215789794921875,0.10946655273437501,0.018798828124999997,-0.0023498535156250035,0.00421142578125,0.00323486328125
-0.208221435546875,0.11822509765625,0.020111083984375,-0.004089355468749999,0.003936767578125,0.002548217773437499
-0.209228515625,0.126434326171875,0.031036376953125,-0.0029296875,0.001922607421875,0.00238037109375
-0.218719482421875,0.12420654296875,0.0250701904296875,-0.0009002685546875,-0.00012207031250000005,0.0022735595703125
-0.217926025390625,0.1263427734375,0.0206298828125,0.001678466796875,0.000396728515625,0.001922607421875
-0.2185821533203125,0.11767578125,0.0240020751953125,0.0024566650390625,0.0008697509765625,0.00128173828125
-0.21771240234375,0.117431640625,0.03894042968750002,0.0029296875000000017,0.0014953613281250026,0.0006103515624999978
-0.2111968994140625,0.1225128173828125,0.0423431396484375,0.0033416748046875,0.004974365234375,-0.0007171630859375
-0.2135009765625,0.134368896484375,0.05029296875,0.001190185546875,0.012847900390625,-0.00396728515625
-0.2085113525390625,0.14349365234375,0.065765380859375,-0.006317138671875,0.0218505859375,-0.0053253173828125
-0.199676513671875,0.1409912109375,0.055267333984375,-0.01434326171875,0.032257080078125,-0.010284423828125
-0.19638061523437503,0.19015502929687506,0.05281066894531236,-0.011810302734374934,0.031066894531249986,-0.017272949218750035
-0.197021484375,0.21337890625,0.004669189453125,0.003265380859375,0.0177001953125,-0.02435302734375
-0.21459960937499992,0.19462585449218744,0.03572082519531247,0.029525756835937517,-0.012191772460937531,-0.03808593749999999

-0.209228515625,0.126434326171875,0.031036376953125,-0.0029296875,0.001922607421875,0.00238037109375
-0.218719482421875,0.12420654296875,0.0250701904296875,-0.0009002685546875,-0.00012207031250000005,0.0022735595703125
-0.217926025390625,0.1263427734375,0.0206298828125,0.001678466796875,0.000396728515625,0.001922607421875
-0.2185821533203125,0.11767578125,0.0240020751953125,0.0024566650390625,0.0008697509765625,0.00128173828125
-0.21771240234375,0.117431640625,0.03894042968750002,0.0029296875000000017,0.0014953613281250026,0.0006103515624999978
-0.2111968994140625,0.1225128173828125,0.0423431396484375,0.0033416748046875,0.004974365234375,-0.0007171630859375
-0.2135009765625,0.134368896484375,0.05029296875,0.001190185546875,0.012847900390625,-0.00396728515625
-0.2085113525390625,0.14349365234375,0.065765380859375,-0.006317138671875,0.0218505859375,-0.0053253173828125
-0.199676513671875,0.1409912109375,0.055267333984375,-0.01434326171875,0.032257080078125,-0.010284423828125
-0.19638061523437503,0.19015502929687506,0.05281066894531236,-0.011810302734374934,0.031066894531249986,-0.017272949218750035
-0.197021484375,0.21337890625,0.004669189453125,0.003265380859375,0.0177001953125,-0.02435302734375
-0.21459960937499992,0.19462585449218744,0.03572082519531247,0.029525756835937517,-0.012191772460937531,-0.03808593749999999
-0.2010498046875,0.180419921875,0.0438232421875,0.042144775390625,-0.019439697265625,-0.037078857421875
-0.193328857421875,0.151947021484375,0.0703582763671875,0.03173828125,-0.0121917724609375,-0.0318603515625
-0.1883544921875,0.119110107421875,0.053192138671875,0.020599365234375,-0.000885009765625,-0.022247314453125
-0.16184997558593747,0.11764526367187499,0.05725097656250003,0.017959594726562514,-0.006332397460937496,-0.018280029296874986
-0.14181518554687497,0.12326049804687497,0.06750488281249999,0.018096923828125038,-0.009002685546875007,-0.012817382812499972
-0.13958740234375,0.1372222900390625,0.06768798828125,0.0210723876953125,-0.0109405517578125,-0.00653076171875
-0.1357421875,0.139007568359375,0.068756103515625,0.01885986328125,-0.0103759765625,-0.003814697265625
-0.1197357177734375,0.1375732421875,0.0753936767578125,0.01263427734375,-0.009429931640625,0.001678466796875

-0.199676513671875,0.1409912109375,0.055267333984375,-0.01434326171875,0.032257080078125,-0.010284423828125
-0.19638061523437503,0.19015502929687506,0.05281066894531236,-0.011810302734374934,0.031066894531249986,-0.017272949218750035
-0.197021484375,0.21337890625,0.004669189453125,0.003265380859375,0.0177001953125,-0.02435302734375
-0.21459960937499992,0.19462585449218744,0.03572082519531247,0.029525756835937517,-0.012191772460937531,-0.03808593749999999
-0.2010498046875,0.180419921875,0.0438232421875,0.042144775390625,-0.019439697265625,-0.037078857421875
-0.193328857421875,0.151947021484375,0.0703582763671875,0.03173828125,-0.0121917724609375,-0.0318603515625
-0.1883544921875,0.119110107421875,0.053192138671875,0.020599365234375,-0.000885009765625,-0.022247314453125
-0.16184997558593747,0.11764526367187499,0.05725097656250003,0.017959594726562514,-0.006332397460937496,-0.018280029296874986
-0.14181518554687497,0.12326049804687497,0.06750488281249999,0.018096923828125038,-0.009002685546875007,-0.012817382812499972
-0.13958740234375,0.1372222900390625,0.06768798828125,0.0210723876953125,-0.0109405517578125,-0.00653076171875
-0.1357421875,0.139007568359375,0.068756103515625,0.01885986328125,-0.0103759765625,-0.003814697265625
-0.1197357177734375,0.1375732421875,0.0753936767578125,0.01263427734375,-0.009429931640625,0.001678466796875
-0.118927001953125,0.163909912109375,0.086639404296875,0.016998291015625,-0.01177978515625,0.0107421875
-0.16091918945312514,0.1885070800781251,0.11610412597656257,0.01739501953124999,-0.014556884765624997,0.012390136718750003
-0.176239013671875,0.248809814453125,0.153839111328125,0.008209228515625,-0.009552001953125,0.00714111328125
-0.1530303955078125,0.2097930908203125,0.142852783203125,0.005706787109375,-0.004150390625,-0.0021514892578125
-0.199462890625,0.085693359375,-0.00567626953125,-0.018890380859375,-0.0135498046875,0.024932861328125
-0.3707122802734375,0.2169647216796875,0.119171142578125,-0.0127105712890625,-0.0210418701171875,0.0339813232421875
-0.24652099609374903,0.16287231445312367,0.08639526367187367,-0.0036010742187505018,0.00930786132812516,-0.002349853515624911
-0.175750732421875,-0.060638427734375,-0.098846435546875,-0.0599212646484375,0.018463134765625,0.018890380859375

-0.14181518554687497,0.12326049804687497,0.06750488281249999,0.018096923828125038,-0.009002685546875007,-0.012817382812499972
-0.13958740234375,0.1372222900390625,0.06768798828125,0.0210723876953125,-0.0109405517578125,-0.00653076171875
-0.1357421875,0.139007568359375,0.068756103515625,0.01885986328125,-0.0103759765625,-0.003814697265625
-0.1197357177734375,0.1375732421875,0.0753936767578125,0.01263427734375,-0.009429931640625,0.001678466796875
-0.118927001953125,0.163909912109375,0.086639404296875,0.016998291015625,-0.01177978515625,0.0107421875
-0.16091918945312514,0.1885070800781251,0.11610412597656257,0.01739501953124999,-0.014556884765624997,0.012390136718750003
-0.176239013671875,0.248809814453125,0.153839111328125,0.008209228515625,-0.009552001953125,0.00714111328125
-0.1530303955078125,0.2097930908203125,0.142852783203125,0.005706787109375,-0.004150390625,-0.0021514892578125
-0.199462890625,0.085693359375,-0.00567626953125,-0.018890380859375,-0.0135498046875,0.024932861328125
-0.3707122802734375,0.2169647216796875,0.119171142578125,-0.0127105712890625,-0.0210418701171875,0.0339813232421875
-0.24652099609374903,0.16287231445312367,0.08639526367187367,-0.0036010742187505018,0.00930786132812516,-0.002349853515624911
-0.175750732421875,-0.060638427734375,-0.098846435546875,-0.0599212646484375,0.018463134765625,0.018890380859375
-0.216064453125,0.024688720703125,-0.02197265625,-0.0205078125,0.016815185546875,0.03741455078125
-0.1856842041015625,0.26934814453125,-0.01226806640625,-0.008880615234375,-0.0014495849609375,0.02593994140625
-0.1943359375,0.274139404296875,0.169769287109375,-0.0107421875,-0.017852783203125,0.00714111328125
-0.2270507812499994,0.10025024414062542,-0.027130126953124754,-0.02110290527343768,0.00671386718750013,-0.0002593994140625551
-0.170654296875,0.158294677734375,0.0279541015625,-0.0228271484375,-0.0013427734375,-0.00201416015625
-0.17427062988281258,0.15547180175781225,-0.03546142578125043,-0.012664794921874981,-0.004882812500000044,-0.0030364990234375395
-0.198272705078125,0.091461181640625,0.041839599609375,-0.011016845703125,-0.01690673828125,-0.003265380859375
-0.1893005371093749,0.09509277343750014,0.022903442382812403,-0.010025024414062498,-0.013046264648437495,-4.577636718750846e-05

-0.199462890625,0.085693359375,-0.00567626953125,-0.018890380859375,-0.0135498046875,0.024932861328125
-0.3707122802734375,0.2169647216796875,0.119171142578125,-0.0127105712890625,-0.0210418701171875,0.0339813232421875
-0.24652099609374903,0.16287231445312367,0.08639526367187367,-0.0036010742187505018,0.00930786132812516,-0.002349853515624911
-0.175750732421875,-0.060638427734375,-0.098846435546875,-0.0599212646484375,0.018463134765625,0.018890380859375
-0.216064453125,0.024688720703125,-0.02197265625,-0.0205078125,0.016815185546875,0.03741455078125
-0.1856842041015625,0.26934814453125,-0.01226806640625,-0.008880615234375,-0.0014495849609375,0.02593994140625
-0.1943359375,0.274139404296875,0.169769287109375,-0.0107421875,-0.017852783203125,0.00714111328125
-0.2270507812499994,0.10025024414062542,-0.027130126953124754,-0.02110290527343768,0.00671386718750013,-0.0002593994140625551
-0.170654296875,0.158294677734375,0.0279541015625,-0.0228271484375,-0.0013427734375,-0.00201416015625
-0.17427062988281258,0.15547180175781225,-0.03546142578125043,-0.012664794921874981,-0.004882812500000044,-0.0030364990234375395
-0.198272705078125,0.091461181640625,0.041839599609375,-0.011016845703125,-0.01690673828125,-0.003265380859375
-0.1893005371093749,0.09509277343750014,0.022903442382812403,-0.010025024414062498,-0.013046264648437495,-4.577636718750846e-05
-0.202850341796875,0.1143798828125,0.0081787109375,-0.016510009765625,-0.0054931640625,0.01055908203125
-0.18887329101562492,0.14237976074218728,0.007278442382812264,-0.02085876464843747,-0.007476806640625042,0.017959594726562472
-0.183685302734375,0.177154541015625,0.01434326171875,-0.021087646484375,-0.00054931640625,0.01837158203125
-0.1495513916015619,0.20706176757812553,-0.02192687988281297,-0.01763916015624993,-0.0003051757812499932,0.012603759765624962
-0.28567504882812556,0.22460937499999986,0.017242431640625343,-0.013183593749999901,-0.005432128906249931,-0.0011291503906250549
-0.2736053466796871,0.23138427734375033,0.005599975585937115,0.0031585693359374753,0.012130737304687665,-0.012573242187499976
-0.18536376953125,0.267181396484375,0.077362060546875,0.00494384765625,0.016143798828125,-0.038421630859375
-0.31858825683593855,0.1246337890624999,-0.008148193359375503,-0.006042480468750212,0.062499999999999965,-0.04873657226562482

-0.170654296875,0.158294677734375,0.0279541015625,-0.0228271484375,-0.0013427734375,-0.00201416015625
-0.17427062988281258,0.15547180175781225,-0.03546142578125043,-0.012664794921874981,-0.004882812500000044,-0.0030364990234375395
-0.198272705078125,0.091461181640625,0.041839599609375,-0.011016845703125,-0.01690673828125,-0.003265380859375
-0.1893005371093749,0.09509277343750014,0.022903442382812403,-0.010025024414062498,-0.013046264648437495,-4.577636718750846e-05
-0.202850341796875,0.1143798828125,0.0081787109375,-0.016510009765625,-0.0054931640625,0.01055908203125
-0.18887329101562492,0.14237976074218728,0.007278442382812264,-0.02085876464843747,-0.007476806640625042,0.017959594726562472
-0.183685302734375,0.177154541015625,0.01434326171875,-0.021087646484375,-0.00054931640625,0.01837158203125
-0.1495513916015619,0.20706176757812553,-0.02192687988281297,-0.01763916015624993,-0.0003051757812499932,0.012603759765624962
-0.28567504882812556,0.22460937499999986,0.017242431640625343,-0.013183593749999901,-0.005432128906249931,-0.0011291503906250549
-0.2736053466796871,0.23138427734375033,0.005599975585937115,0.0031585693359374753,0.012130737304687665,-0.012573242187499976
-0.18536376953125,0.267181396484375,0.077362060546875,0.00494384765625,0.016143798828125,-0.038421630859375
-0.31858825683593855,0.1246337890624999,-0.008148193359375503,-0.006042480468750212,0.062499999999999965,-0.04873657226562482
-0.327850341796875,0.088958740234375,0.05645751953125,-0.094451904296875,0.064666748046875,-0.021240234375
-0.26582336425781233,0.26548767089843817,-0.1265411376953134,0.04769897460937639,0.014114379882812014,-0.04306030273437517
-0.247467041015625,0.226287841796875,0.04083251953125,0.08917236328125,0.014678955078125,-0.0787353515625
-0.12869262695312497,0.07521057128906228,0.010375976562499906,0.06408691406250014,0.005493164062500063,-0.06954956054687514
-0.139434814453125,0.1334228515625,-0.04302978515625,0.07293701171875,-0.02166748046875,-0.047760009765625
-0.11935424804687488,0.07723999023437468,-0.0016937255859372953,0.055709838867187354,-0.017089843750000003,-0.025268554687499886
-0.13320922851562506,0.02050781249999952,0.016326904296875024,0.03616333007812489,-0.02148437499999998,-0.01205444335937483
-0.12696838378906244,0.007690429687500143,0.02569580078124998,0.02256774902343746,-0.01933288574218749,0.0010223388671875423

-0.28567504882812556,0.22460937499999986,0.017242431640625343,-0.013183593749999901,-0.005432128906249931,-0.0011291503906250549
-0.2736053466796871,0.23138427734375033,0.005599975585937115,0.0031585693359374753,0.012130737304687665,-0.012573242187499976
-0.18536376953125,0.267181396484375,0.077362060546875,0.00494384765625,0.016143798828125,-0.038421630859375
-0.31858825683593855,0.1246337890624999,-0.008148193359375503,-0.006042480468750212,0.062499999999999965,-0.04873657226562482
-0.327850341796875,0.088958740234375,0.05645751953125,-0.094451904296875,0.064666748046875,-0.021240234375
-0.26582336425781233,0.26548767089843817,-0.1265411376953134,0.04769897460937639,0.014114379882812014,-0.04306030273437517
-0.247467041015625,0.226287841796875,0.04083251953125,0.08917236328125,0.014678955078125,-0.0787353515625
-0.12869262695312497,0.07521057128906228,0.010375976562499906,0.06408691406250014,0.005493164062500063,-0.06954956054687514
-0.139434814453125,0.1334228515625,-0.04302978515625,0.07293701171875,-0.02166748046875,-0.047760009765625
-0.11935424804687488,0.07723999023437468,-0.0016937255859372953,0.055709838867187354,-0.017089843750000003,-0.025268554687499886
-0.13320922851562506,0.02050781249999952,0.016326904296875024,0.03616333007812489,-0.02148437499999998,-0.01205444335937483
-0.12696838378906244,0.007690429687500143,0.02569580078124998,0.02256774902343746,-0.01933288574218749,0.0010223388671875423
-0.117431640625,0.026397705078125,0.03558349609375,-0.001373291015625,-0.017120361328125,0.021636962890625
-0.16905212402343792,0.13737487792968878,0.10772705078125028,-0.028747558593749983,-0.022872924804687538,0.04643249511718752
-0.205657958984375,0.42083740234375,0.238616943359375,0.00628662109375,-0.004730224609375,0.03253173828125
-0.15188598632812572,0.3478393554687479,0.22137451171874953,0.029357910156250007,-1.0137290312739466e-17,-0.02006530761718752
-0.44891357421875,0.020965576171875,-0.128936767578125,-0.112396240234375,0.010528564453125,0.029998779296875
-0.41703796386719005,0.08152770996093817,0.1561431884765627,-0.04187011718750221,0.008026123046874879,0.044662475585937854
-0.069000244140625,0.0130615234375,-0.188751220703125,-0.06329345703125,0.00836181640625,0.027496337890625
-0.16882324218750044,0.046920776367188236,-0.1454925537109356,-0.11149597167968751,-0.0009460449218750707,0.07846069335937511

-0.139434814453125,0.1334228515625,-0.04302978515625,0.07293701171875,-0.02166748046875,-0.047760009765625
-0.11935424804687488,0.07723999023437468,-0.0016937255859372953,0.055709838867187354,-0.017089843750000003,-0.025268554687499886
-0.13320922851562506,0.02050781249999952,0.016326904296875024,0.03616333007812489,-0.02148437499999998,-0.01205444335937483
-0.12696838378906244,0.007690429687500143,0.02569580078124998,0.02256774902343746,-0.01933288574218749,0.0010223388671875423
-0.117431640625,0.026397705078125,0.03558349609375,-0.001373291015625,-0.017120361328125,0.021636962890625
-0.16905212402343792,0.13737487792968878,0.10772705078125028,-0.028747558593749983,-0.022872924804687538,0.04643249511718752
-0.205657958984375,0.42083740234375,0.238616943359375,0.00628662109375,-0.004730224609375,0.03253173828125
-0.15188598632812572,0.3478393554687479,0.22137451171874953,0.029357910156250007,-1.0137290312739466e-17,-0.02006530761718752
-0.44891357421875,0.020965576171875,-0.128936767578125,-0.112396240234375,0.010528564453125,0.029998779296875
-0.41703796386719005,0.08152770996093817,0.1561431884765627,-0.04187011718750221,0.008026123046874879,0.044662475585937854
-0.069000244140625,0.0130615234375,-0.188751220703125,-0.06329345703125,0.00836181640625,0.027496337890625
-0.16882324218750044,0.046920776367188236,-0.1454925537109356,-0.11149597167968751,-0.0009460449218750707,0.07846069335937511
-0.24792480468749883,0.15423583984375114,-0.11508178710937346,-0.01885986328125,-0.00894165039062513,0.035614013671874785
-0.18838500976562633,0.25181579589843506,0.1256713867187484,0.05935668945312506,0.03518676757812493,0.015167236328124964
-0.19232177734375,0.126739501953125,-0.062530517578125,-0.06756591796875,-0.019134521484375,0.003509521484375
-0.15837097167968733,0.12153625488281308,-0.03077697753906152,-0.02136230468749949,0.003952026367187441,-0.005035400390625001
-0.1771240234375,0.1104736328125,-0.02392578125,0.008453369140625,-0.0185546875,0.00689697265625
-0.20286560058593758,0.10813903808593728,0.03021240234374991,-0.012252807617187587,-0.011779785156249886,0.011123657226562538
-0.2137451171875,0.08502197265625,-0.00128173828125,-0.01812744140625,-0.002838134765625,0.018646240234375
-0.21466064453125008,0.11480712890624988,-0.0005187988281249519,-0.022827148437500007,0.0004577636718749703,0.023056030273437517

-0.44891357421875,0.020965576171875,-0.128936767578125,-0.112396240234375,0.010528564453125,0.029998779296875
-0.41703796386719005,0.08152770996093817,0.1561431884765627,-0.04187011718750221,0.008026123046874879,0.044662475585937854
-0.069000244140625,0.0130615234375,-0.188751220703125,-0.06329345703125,0.00836181640625,0.027496337890625
-0.16882324218750044,0.046920776367188236,-0.1454925537109356,-0.11149597167968751,-0.0009460449218750707,0.07846069335937511
-0.24792480468749883,0.15423583984375114,-0.11508178710937346,-0.01885986328125,-0.00894165039062513,0.035614013671874785
-0.18838500976562633,0.25181579589843506,0.1256713867187484,0.05935668945312506,0.03518676757812493,0.015167236328124964
-0.19232177734375,0.126739501953125,-0.062530517578125,-0.06756591796875,-0.019134521484375,0.003509521484375
-0.15837097167968733,0.12153625488281308,-0.03077697753906152,-0.02136230468749949,0.003952026367187441,-0.005035400390625001
-0.1771240234375,0.1104736328125,-0.02392578125,0.008453369140625,-0.0185546875,0.00689697265625
-0.20286560058593758,0.10813903808593728,0.03021240234374991,-0.012252807617187587,-0.011779785156249886,0.011123657226562538
-0.2137451171875,0.08502197265625,-0.00128173828125,-0.01812744140625,-0.002838134765625,0.018646240234375
-0.21466064453125008,0.11480712890624988,-0.0005187988281249519,-0.022827148437500007,0.0004577636718749703,0.023056030273437517
-0.16583251953125,0.2369384765625,0.0052490234375,-0.009552001953125,0.0023193359375,0.013885498046875
-0.15646362304687533,0.2824859619140623,0.004577636718750158,-0.00965881347656248,0.002090454101562533,0.0029449462890624375
-0.3072509765624995,0.2592468261718749,0.01483154296875043,0.010559082031250314,0.009277343750000196,-0.016021728515625104
-0.20533752441406328,0.3173217773437495,0.142898559570314,0.05485534667968761,0.015731811523437583,-0.038635253906250104
-0.32196044921875,0.123046875,-0.122650146484375,0.017608642578125,0.067718505859375,-0.062408447265625
-0.4052734375000013,0.08314514160156325,-0.025802612304690165,-0.059692382812499264,0.06950378417968733,-0.030578613281250163
-0.3172607421874992,0.21286010742187966,-1.0488300766081406e-14,-0.044647216796868325,0.023651123046872793,-0.031707763671876166
-0.18266296386718683,0.22563171386718528,0.14804077148437278,0.11418151855468694,-0.009307861328124566,-0.0844726562500001

-0.1771240234375,0.1104736328125,-0.02392578125,0.008453369140625,-0.0185546875,0.00689697265625
-0.20286560058593758,0.10813903808593728,0.03021240234374991,-0.012252807617187587,-0.011779785156249886,0.011123657226562538
-0.2137451171875,0.08502197265625,-0.00128173828125,-0.01812744140625,-0.002838134765625,0.018646240234375
-0.21466064453125008,0.11480712890624988,-0.0005187988281249519,-0.022827148437500007,0.0004577636718749703,0.023056030273437517
-0.16583251953125,0.2369384765625,0.0052490234375,-0.009552001953125,0.0023193359375,0.013885498046875
-0.15646362304687533,0.2824859619140623,0.004577636718750158,-0.00965881347656248,0.002090454101562533,0.0029449462890624375
-0.3072509765624995,0.2592468261718749,0.01483154296875043,0.010559082031250314,0.009277343750000196,-0.016021728515625104
-0.20533752441406328,0.3173217773437495,0.142898559570314,0.05485534667968761,0.015731811523437583,-0.038635253906250104
-0.32196044921875,0.123046875,-0.122650146484375,0.017608642578125,0.067718505859375,-0.062408447265625
-0.4052734375000013,0.08314514160156325,-0.025802612304690165,-0.059692382812499264,0.06950378417968733,-0.030578613281250163
-0.3172607421874992,0.21286010742187966,-1.0488300766081406e-14,-0.044647216796868325,0.023651123046872793,-0.031707763671876166
-0.18266296386718683,0.22563171386718528,0.14804077148437278,0.11418151855468694,-0.009307861328124566,-0.0844726562500001
-0.20477294921875,0.047882080078125,0.01873779296875,0.0780029296875,0.00323486328125,-0.066864013671875
-0.1721954345703125,0.1336517333984375,-0.02313232421875,0.07501220703125,-0.009735107421875,-0.055511474609375
-0.102203369140625,0.07733154296875,-0.02508544921875,0.067047119140625,-0.00714111328125,-0.0343017578125
-0.10867309570312536,0.017517089843750003,0.014434814453125252,0.03186035156249985,-0.012496948242187623,-0.014541625976562451
-0.137451171875,0.01544189453125,0.016937255859375,0.027008056640625,-0.0146484375,0.001556396484375
-0.1123199462890625,0.027587890625,0.01300048828125,0.0130767822265625,-0.0103759765625,0.01861572265625
-0.127960205078125,0.121307373046875,0.08538818359375,-0.01422119140625,-0.02838134765625,0.02972412109375
-0.15827941894531214,0.2095489501953116,0.13546752929687442,-0.021926879882812434,-0.04005432128906247,0.029693603515625

-0.32196044921875,0.123046875,-0.122650146484375,0.017608642578125,0.067718505859375,-0.062408447265625
-0.4052734375000013,0.08314514160156325,-0.025802612304690165,-0.059692382812499264,0.06950378417968733,-0.030578613281250163
-0.3172607421874992,0.21286010742187966,-1.0488300766081406e-14,-0.044647216796868325,0.023651123046872793,-0.031707763671876166
-0.18266296386718683,0.22563171386718528,0.14804077148437278,0.11418151855468694,-0.009307861328124566,-0.0844726562500001
-0.20477294921875,0.047882080078125,0.01873779296875,0.0780029296875,0.00323486328125,-0.066864013671875
-0.1721954345703125,0.1336517333984375,-0.02313232421875,0.07501220703125,-0.009735107421875,-0.055511474609375
-0.102203369140625,0.07733154296875,-0.02508544921875,0.067047119140625,-0.00714111328125,-0.0343017578125
-0.10867309570312536,0.017517089843750003,0.014434814453125252,0.03186035156249985,-0.012496948242187623,-0.014541625976562451
-0.137451171875,0.01544189453125,0.016937255859375,0.027008056640625,-0.0146484375,0.001556396484375
-0.1123199462890625,0.027587890625,0.01300048828125,0.0130767822265625,-0.0103759765625,0.01861572265625
-0.127960205078125,0.121307373046875,0.08538818359375,-0.01422119140625,-0.02838134765625,0.02972412109375
-0.15827941894531214,0.2095489501953116,0.13546752929687442,-0.021926879882812434,-0.04005432128906247,0.029693603515625
-0.1087646484375,0.49029541015625,0.311676025390625,-0.02001953125,-0.002777099609375,0.030059814453125
-0.16804504394531303,0.39146423339843106,0.25242614746093534,0.02015686035156265,-0.001388549804687755,-0.011047363281250215
-0.27044677734375,-0.001190185546875,-0.073394775390625,-0.0675048828125,0.005126953125,0.009918212890625
-0.537384033203125,0.1284942626953125,0.3543701171875,-0.09246826171875,-0.0004425048828125,0.048828125
-0.18881225585937753,-0.004180908203126031,-0.011016845703122074,-0.10549926757812302,-0.003967285156249977,0.08740234374999925
-0.23648071289062442,0.13916015625000164,-0.10585021972656257,-0.011764526367187247,-0.0037841796874999133,0.03758239746093723
-0.15924072265625,0.245269775390625,0.078338623046875,-0.02081298828125,0.0157470703125,0.0186767578125
-0.221282958984375,0.09844970703125,-0.0145111083984375,0.016632080078125,-0.0072021484375,-0.000335693359375

-0.137451171875,0.01544189453125,0.016937255859375,0.027008056640625,-0.0146484375,0.001556396484375
-0.1123199462890625,0.027587890625,0.01300048828125,0.0130767822265625,-0.0103759765625,0.01861572265625
-0.127960205078125,0.121307373046875,0.08538818359375,-0.01422119140625,-0.02838134765625,0.02972412109375
-0.15827941894531214,0.2095489501953116,0.13546752929687442,-0.021926879882812434,-0.04005432128906247,0.029693603515625
-0.1087646484375,0.49029541015625,0.311676025390625,-0.02001953125,-0.002777099609375,0.030059814453125
-0.16804504394531303,0.39146423339843106,0.25242614746093534,0.02015686035156265,-0.001388549804687755,-0.011047363281250215
-0.27044677734375,-0.001190185546875,-0.073394775390625,-0.0675048828125,0.005126953125,0.009918212890625
-0.537384033203125,0.1284942626953125,0.3543701171875,-0.09246826171875,-0.0004425048828125,0.048828125
-0.18881225585937753,-0.004180908203126031,-0.011016845703122074,-0.10549926757812302,-0.003967285156249977,0.08740234374999925
-0.23648071289062442,0.13916015625000164,-0.10585021972656257,-0.011764526367187247,-0.0037841796874999133,0.03758239746093723
-0.15924072265625,0.245269775390625,0.078338623046875,-0.02081298828125,0.0157470703125,0.0186767578125
-0.221282958984375,0.09844970703125,-0.0145111083984375,0.016632080078125,-0.0072021484375,-0.000335693359375
-0.195892333984375,0.10736083984375,-0.033294677734375,0.075836181640625,0.01116943359375,-0.021881103515625
-0.15931701660156233,0.1531066894531246,0.0018768310546869085,-0.005416870117187838,-0.001434326171875,0.005111694335937766
-0.177825927734375,0.152618408203125,0.0106201171875,-0.00982666015625,-0.022918701171875,0.008453369140625
-0.19409179687499947,0.0936737060546882,0.039566040039062056,-0.03379821777343836,-0.013320922851562167,0.01528930664062517
-0.194183349609375,0.178924560546875,0.030426025390625,-0.018829345703125,-0.01031494140625,0.0146484375
-0.16693115234375,0.2591094970703125,-0.000457763671875,-0.007171630859375,-0.0092010498046875,0.01409912109375
-0.25082397460937644,0.2221984863281263,0.03594970703125204,-0.0003051757812493739,-0.0036010742187495594,-0.004455566406250297
-0.23448181152343658,0.29141235351562533,0.0693359374999999,0.016067504882812566,0.018844604492187646,-0.016220092773437594

-0.18881225585937753,-0.004180908203126031,-0.011016845703122074,-0.10549926757812302,-0.003967285156249977,0.08740234374999925
-0.23648071289062442,0.13916015625000164,-0.10585021972656257,-0.011764526367187247,-0.0037841796874999133,0.03758239746093723
-0.15924072265625,0.245269775390625,0.078338623046875,-0.02081298828125,0.0157470703125,0.0186767578125
-0.221282958984375,0.09844970703125,-0.0145111083984375,0.016632080078125,-0.0072021484375,-0.000335693359375
-0.195892333984375,0.10736083984375,-0.033294677734375,0.075836181640625,0.01116943359375,-0.021881103515625
-0.15931701660156233,0.1531066894531246,0.0018768310546869085,-0.005416870117187838,-0.001434326171875,0.005111694335937766
-0.177825927734375,0.152618408203125,0.0106201171875,-0.00982666015625,-0.022918701171875,0.008453369140625
-0.19409179687499947,0.0936737060546882,0.039566040039062056,-0.03379821777343836,-0.013320922851562167,0.01528930664062517
-0.194183349609375,0.178924560546875,0.030426025390625,-0.018829345703125,-0.01031494140625,0.0146484375
-0.16693115234375,0.2591094970703125,-0.000457763671875,-0.007171630859375,-0.0092010498046875,0.01409912109375
-0.25082397460937644,0.2221984863281263,0.03594970703125204,-0.0003051757812493739,-0.0036010742187495594,-0.004455566406250297
-0.23448181152343658,0.29141235351562533,0.0693359374999999,0.016067504882812566,0.018844604492187646,-0.016220092773437594
-0.307464599609375,0.16131591796875,0.10943603515625,0.0343017578125,0.065460205078125,-0.046234130859375
-0.3435211181640625,0.124298095703125,-0.1277008056640625,-0.00836181640625,0.0680694580078125,-0.050872802734375
-0.28204345703125,0.116058349609375,0.039215087890625,-0.080535888671875,0.058319091796875,-0.026275634765625
-0.2811126708984361,0.24433898925781392,0.06741333007812567,0.021362304687504344,0.010574340820311334,-0.049209594726563444
-0.218475341796875,0.11651611328125,-0.003814697265625,0.087615966796875,-0.005615234375,-0.059783935546875
-0.13108825683593728,0.06607055664062447,-0.02676391601562497,0.073577880859375,-0.008682250976562531,-0.04556274414062487
-0.11358642578125,0.03204345703125,0.005767822265625,0.04522705078125,-0.00830078125,-0.023773193359375
-0.1208648681640625,0.029296875,0.0169677734375,0.0193023681640625,-0.0136260986328125,-0.012420654296875

-0.194183349609375,0.178924560546875,0.030426025390625,-0.018829345703125,-0.01031494140625,0.0146484375
-0.16693115234375,0.2591094970703125,-0.000457763671875,-0.007171630859375,-0.0092010498046875,0.01409912109375
-0.25082397460937644,0.2221984863281263,0.03594970703125204,-0.0003051757812493739,-0.0036010742187495594,-0.004455566406250297
-0.23448181152343658,0.29141235351562533,0.0693359374999999,0.016067504882812566,0.018844604492187646,-0.016220092773437594
-0.307464599609375,0.16131591796875,0.10943603515625,0.0343017578125,0.065460205078125,-0.046234130859375
-0.3435211181640625,0.124298095703125,-0.1277008056640625,-0.00836181640625,0.0680694580078125,-0.050872802734375
-0.28204345703125,0.116058349609375,0.039215087890625,-0.080535888671875,0.058319091796875,-0.026275634765625
-0.2811126708984361,0.24433898925781392,0.06741333007812567,0.021362304687504344,0.010574340820311334,-0.049209594726563444
-0.218475341796875,0.11651611328125,-0.003814697265625,0.087615966796875,-0.005615234375,-0.059783935546875
-0.13108825683593728,0.06607055664062447,-0.02676391601562497,0.073577880859375,-0.008682250976562531,-0.04556274414062487
-0.11358642578125,0.03204345703125,0.005767822265625,0.04522705078125,-0.00830078125,-0.023773193359375
-0.1208648681640625,0.029296875,0.0169677734375,0.0193023681640625,-0.0136260986328125,-0.012420654296875
-0.12167358398437475,0.030639648437499875,-0.002471923828125312,0.01940917968749969,-0.01327514648437489,-0.00021362304687460427
-0.11647033691406256,0.017471313476562535,0.006683349609375444,-0.0031890869140629597,-0.017333984375000194,0.021881103515625187
-0.152496337890625,0.20172119140625,0.133636474609375,-0.014923095703125,-0.043792724609375,0.032135009765625
-0.1525421142578125,0.4557037353515625,0.3017578125,-0.0070037841796875,-0.019683837890625,0.0198974609375
-0.246246337890625,0.151336669921875,0.132476806640625,0.012298583984375,0.00299072265625,-0.01763916015625
-0.3415069580078194,0.034561157226563964,-0.07063293457031465,-0.11485290527343914,0.0008239746093748278,0.04093933105468828
-0.256927490234375,0.13409423828125,-0.031768798828125,0.0701904296875,-0.000640869140625,0.014190673828125
-0.1483306884765625,0.075286865234375,-0.1873321533203125,-0.077423095703125,0.0022735595703125,0.027923583984375

-0.218475341796875,0.11651611328125,-0.003814697265625,0.087615966796875,-0.005615234375,-0.059783935546875
-0.13108825683593728,0.06607055664062447,-0.02676391601562497,0.073577880859375,-0.008682250976562531,-0.04556274414062487
-0.11358642578125,0.03204345703125,0.005767822265625,0.04522705078125,-0.00830078125,-0.023773193359375
-0.1208648681640625,0.029296875,0.0169677734375,0.0193023681640625,-0.0136260986328125,-0.012420654296875
-0.12167358398437475,0.030639648437499875,-0.002471923828125312,0.01940917968749969,-0.01327514648437489,-0.00021362304687460427
-0.11647033691406256,0.017471313476562535,0.006683349609375444,-0.0031890869140629597,-0.017333984375000194,0.021881103515625187
-0.152496337890625,0.20172119140625,0.133636474609375,-0.014923095703125,-0.043792724609375,0.032135009765625
-0.1525421142578125,0.4557037353515625,0.3017578125,-0.0070037841796875,-0.019683837890625,0.0198974609375
-0.246246337890625,0.151336669921875,0.132476806640625,0.012298583984375,0.00299072265625,-0.01763916015625
-0.3415069580078194,0.034561157226563964,-0.07063293457031465,-0.11485290527343914,0.0008239746093748278,0.04093933105468828
-0.256927490234375,0.13409423828125,-0.031768798828125,0.0701904296875,-0.000640869140625,0.014190673828125
-0.1483306884765625,0.075286865234375,-0.1873321533203125,-0.077423095703125,0.0022735595703125,0.027923583984375
-0.147216796875,-0.028533935546875,-0.0975341796875,-0.113311767578125,0.0087890625,0.0770263671875
-0.2444610595703125,0.164215087890625,-0.1073150634765625,-0.0305328369140625,-0.005126953125,0.0194244384765625
-0.19281005859375347,0.2647094726562402,0.11047363281249803,0.009307861328123416,0.011962890624999176,0.00836181640624943
-0.20872497558593664,0.12527465820312345,-0.05247497558593858,-0.0388793945312499,0.0030212402343754424,-0.003753662109375038
-0.154052734375,0.108734130859375,-0.018585205078125,0.0255126953125,-0.00433349609375,-0.00030517578125
-0.1551971435546875,0.1543121337890625,-0.02044677734375,0.0018768310546875,-0.0218353271484375,0.0106658935546875
-0.1839599609375,0.144439697265625,0.05584716796875,-0.002960205078125,-0.02392578125,0.01361083984375
-0.20428466796875017,0.12275695800781239,0.004180908203124955,-0.00930786132812485,0.0004119873046875197,0.01863098144531245

-0.246246337890625,0.151336669921875,0.132476806640625,0.012298583984375,0.00299072265625,-0.01763916015625
-0.3415069580078194,0.034561157226563964,-0.07063293457031465,-0.11485290527343914,0.0008239746093748278,0.04093933105468828
-0.256927490234375,0.13409423828125,-0.031768798828125,0.0701904296875,-0.000640869140625,0.014190673828125
-0.1483306884765625,0.075286865234375,-0.1873321533203125,-0.077423095703125,0.0022735595703125,0.027923583984375
-0.147216796875,-0.028533935546875,-0.0975341796875,-0.113311767578125,0.0087890625,0.0770263671875
-0.2444610595703125,0.164215087890625,-0.1073150634765625,-0.0305328369140625,-0.005126953125,0.0194244384765625
-0.19281005859375347,0.2647094726562402,0.11047363281249803,0.009307861328123416,0.011962890624999176,0.00836181640624943
-0.20872497558593664,0.12527465820312345,-0.05247497558593858,-0.0388793945312499,0.0030212402343754424,-0.003753662109375038
-0.154052734375,0.108734130859375,-0.018585205078125,0.0255126953125,-0.00433349609375,-0.00030517578125
-0.1551971435546875,0.1543121337890625,-0.02044677734375,0.0018768310546875,-0.0218353271484375,0.0106658935546875
-0.1839599609375,0.144439697265625,0.05584716796875,-0.002960205078125,-0.02392578125,0.01361083984375
-0.20428466796875017,0.12275695800781239,0.004180908203124955,-0.00930786132812485,0.0004119873046875197,0.01863098144531245
-0.1953125,0.161865234375,0.00921630859375,0.002349853515625,-0.002655029296875,0.007965087890625
-0.1176605224609375,0.2976837158203125,-0.0221099853515625,-0.0064849853515625,7.62939453125e-05,0.0087890625
-0.24542236328125,0.182586669921875,0.00567626953125,-0.001434326171875,-0.0059814453125,-0.0067138671875
-0.265594482421875,0.2678375244140625,0.0795440673828125,0.0013275146484375,-0.0028076171875,-0.0090179443359375
-0.2276306152343742,0.2969665527343731,0.03854370117187822,0.006042480468750535,0.024047851562499882,-0.01785278320312534
-0.2552795410156255,0.2041778564453117,0.1931457519531237,0.025650024414062597,0.026672363281250368,-0.03570556640625019
-0.2520751953125,0.153656005859375,-0.094268798828125,-0.005340576171875,0.06121826171875,-0.05792236328125
-0.4171600341796875,0.0924530029296875,0.0409698486328125,-0.0355377197265625,0.0461883544921875,-0.025360107421875

-0.154052734375,0.108734130859375,-0.018585205078125,0.0255126953125,-0.00433349609375,-0.00030517578125
-0.1551971435546875,0.1543121337890625,-0.02044677734375,0.0018768310546875,-0.0218353271484375,0.0106658935546875
-0.1839599609375,0.144439697265625,0.05584716796875,-0.002960205078125,-0.02392578125,0.01361083984375
-0.20428466796875017,0.12275695800781239,0.004180908203124955,-0.00930786132812485,0.0004119873046875197,0.01863098144531245
-0.1953125,0.161865234375,0.00921630859375,0.002349853515625,-0.002655029296875,0.007965087890625
-0.1176605224609375,0.2976837158203125,-0.0221099853515625,-0.0064849853515625,7.62939453125e-05,0.0087890625
-0.24542236328125,0.182586669921875,0.00567626953125,-0.001434326171875,-0.0059814453125,-0.0067138671875
-0.265594482421875,0.2678375244140625,0.0795440673828125,0.0013275146484375,-0.0028076171875,-0.0090179443359375
-0.2276306152343742,0.2969665527343731,0.03854370117187822,0.006042480468750535,0.024047851562499882,-0.01785278320312534
-0.2552795410156255,0.2041778564453117,0.1931457519531237,0.025650024414062597,0.026672363281250368,-0.03570556640625019
-0.2520751953125,0.153656005859375,-0.094268798828125,-0.005340576171875,0.06121826171875,-0.05792236328125
-0.4171600341796875,0.0924530029296875,0.0409698486328125,-0.0355377197265625,0.0461883544921875,-0.025360107421875
-0.3419189453125,0.225006103515625,0.127685546875,-0.056396484375,0.041107177734375,-0.027984619140625
-0.16281127929687475,0.3251190185546868,0.1392669677734391,0.11351013183593825,-0.033782958984374445,-0.05998229980468813
-0.19720458984375,0.0728759765625,0.02685546875,0.088714599609375,0.013427734375,-0.0771484375
-0.1607666015625,0.1329803466796875,-0.013763427734375,0.0724334716796875,0.0,-0.0562896728515625
-0.105987548828125,0.0533447265625,-0.00665283203125,0.0501708984375,-0.008209228515625,-0.02020263671875
-0.11309814453125,0.02899169921875,9.1552734375e-05,0.0430145263671875,-0.013824462890625,-0.01275634765625
-0.1261596679687495,-0.0068359375000002845,-0.011260986328124787,0.0216064453124993,-0.01525878906249984,0.002807617187500623
-0.10475158691406251,-0.01562499999999996,0.0012512207031252212,-0.014587402343750179,-0.012924194335937549,0.023544311523437604

-0.2276306152343742,0.2969665527343731,0.03854370117187822,0.006042480468750535,0.024047851562499882,-0.01785278320312534
-0.2552795410156255,0.2041778564453117,0.1931457519531237,0.025650024414062597,0.026672363281250368,-0.03570556640625019
-0.2520751953125,0.153656005859375,-0.094268798828125,-0.005340576171875,0.06121826171875,-0.05792236328125
-0.4171600341796875,0.0924530029296875,0.0409698486328125,-0.0355377197265625,0.0461883544921875,-0.025360107421875
-0.3419189453125,0.225006103515625,0.127685546875,-0.056396484375,0.041107177734375,-0.027984619140625
-0.16281127929687475,0.3251190185546868,0.1392669677734391,0.11351013183593825,-0.033782958984374445,-0.05998229980468813
-0.19720458984375,0.0728759765625,0.02685546875,0.088714599609375,0.013427734375,-0.0771484375
-0.1607666015625,0.1329803466796875,-0.013763427734375,0.0724334716796875,0.0,-0.0562896728515625
-0.105987548828125,0.0533447265625,-0.00665283203125,0.0501708984375,-0.008209228515625,-0.02020263671875
-0.11309814453125,0.02899169921875,9.1552734375e-05,0.0430145263671875,-0.013824462890625,-0.01275634765625
-0.1261596679687495,-0.0068359375000002845,-0.011260986328124787,0.0216064453124993,-0.01525878906249984,0.002807617187500623
-0.10475158691406251,-0.01562499999999996,0.0012512207031252212,-0.014587402343750179,-0.012924194335937549,0.023544311523437604
-0.144134521484375,0.118499755859375,0.08233642578125,-0.04107666015625,-0.03973388671875,0.0469970703125
-0.2408599853515625,0.4832916259765625,0.3212127685546875,-0.0217742919921875,-0.027008056640625,0.039154052734375
-0.03857421875,0.614166259765625,0.305938720703125,0.022125244140625,0.00384521484375,-0.023834228515625
-0.1974639892578115,0.01435852050781129,0.06925964355468624,-0.007965087890626062,-0.0005950927734372936,-0.00752258300781219
-0.242431640625,0.185638427734375,-0.0406494140625,0.061248779296875,0.008148193359375,0.01043701171875
-0.10723876953125,-0.050506591796875,-0.223388671875,-0.0938568115234375,0.001007080078125,0.0391998291015625
-0.218475341796875,0.050994873046875,-0.00982666015625,-0.073944091796875,0.00616455078125,0.065399169921875
-0.246734619140625,0.1847076416015625,-0.0692138671875,-0.031158447265625,-0.00048828125,0.0247955322265625

-0.105987548828125,0.0533447265625,-0.00665283203125,0.0501708984375,-0.008209228515625,-0.02020263671875
-0.11309814453125,0.02899169921875,9.1552734375e-05,0.0430145263671875,-0.013824462890625,-0.01275634765625
-0.1261596679687495,-0.0068359375000002845,-0.011260986328124787,0.0216064453124993,-0.01525878906249984,0.002807617187500623
-0.10475158691406251,-0.01562499999999996,0.0012512207031252212,-0.014587402343750179,-0.012924194335937549,0.023544311523437604
-0.144134521484375,0.118499755859375,0.08233642578125,-0.04107666015625,-0.03973388671875,0.0469970703125
-0.2408599853515625,0.4832916259765625,0.3212127685546875,-0.0217742919921875,-0.027008056640625,0.039154052734375
-0.03857421875,0.614166259765625,0.305938720703125,0.022125244140625,0.00384521484375,-0.023834228515625
-0.1974639892578115,0.01435852050781129,0.06925964355468624,-0.007965087890626062,-0.0005950927734372936,-0.00752258300781219
-0.242431640625,0.185638427734375,-0.0406494140625,0.061248779296875,0.008148193359375,0.01043701171875
-0.10723876953125,-0.050506591796875,-0.223388671875,-0.0938568115234375,0.001007080078125,0.0391998291015625
-0.218475341796875,0.050994873046875,-0.00982666015625,-0.073944091796875,0.00616455078125,0.065399169921875
-0.246734619140625,0.1847076416015625,-0.0692138671875,-0.031158447265625,-0.00048828125,0.0247955322265625
-0.13058471679688247,0.252075195312497,0.17156982421874203,0.0254516601562494,0.012207031250000232,6.10351562503212e-05
-0.18597412109374967,0.11819458007812506,-0.07507324218750014,-0.03530883789062511,-0.004730224609374967,0.002120971679687545
-0.14776611328125,0.164703369140625,-0.017822265625,0.009490966796875,-0.003448486328125,-9.1552734375e-05
-0.1653289794921875,0.1392059326171875,-0.0071105957031249965,0.0172576904296875,-0.01776123046875,0.0106964111328125
-0.2108154296875,0.116943359375,0.003509521484375,-0.009552001953125,0.001007080078125,0.016326904296875
-0.1993560791015625,0.1473388671875,0.008453369140625,-0.0103607177734375,0.0013427734375,0.01434326171875
-0.13079833984375,0.290863037109375,-0.0040283203125,-0.007232666015625,-0.00128173828125,0.011199951171875
-0.17681884765625,0.2336578369140625,0.0452117919921875,0.0028228759765625,-0.0010986328125,-0.002349853515625

-0.242431640625,0.185638427734375,-0.0406494140625,0.061248779296875,0.008148193359375,0.01043701171875
-0.10723876953125,-0.050506591796875,-0.223388671875,-0.0938568115234375,0.001007080078125,0.0391998291015625
-0.218475341796875,0.050994873046875,-0.00982666015625,-0.073944091796875,0.00616455078125,0.065399169921875
-0.246734619140625,0.1847076416015625,-0.0692138671875,-0.031158447265625,-0.00048828125,0.0247955322265625
-0.13058471679688247,0.252075195312497,0.17156982421874203,0.0254516601562494,0.012207031250000232,6.10351562503212e-05
-0.18597412109374967,0.11819458007812506,-0.07507324218750014,-0.03530883789062511,-0.004730224609374967,0.002120971679687545
-0.14776611328125,0.164703369140625,-0.017822265625,0.009490966796875,-0.003448486328125,-9.1552734375e-05
-0.1653289794921875,0.1392059326171875,-0.0071105957031249965,0.0172576904296875,-0.01776123046875,0.0106964111328125
-0.2108154296875,0.116943359375,0.003509521484375,-0.009552001953125,0.001007080078125,0.016326904296875
-0.1993560791015625,0.1473388671875,0.008453369140625,-0.0103607177734375,0.0013427734375,0.01434326171875
-0.13079833984375,0.290863037109375,-0.0040283203125,-0.007232666015625,-0.00128173828125,0.011199951171875
-0.17681884765625,0.2336578369140625,0.0452117919921875,0.0028228759765625,-0.0010986328125,-0.002349853515625
-0.30822753906249817,0.2031555175781267,0.026733398437503126,0.01037597656249949,0.005401611328124539,-0.02124023437499985
-0.1873779296875,0.2789764404296875,0.1088104248046875,0.02447509765625,0.019561767578125,-0.022796630859375
-0.261810302734375,0.191925048828125,-0.02886962890625,0.029937744140625,0.07354736328125,-0.054168701171875
-0.4547576904296875,0.12921142578125,-0.059661865234375,-0.00372314453125,0.042510986328125,-0.0427703857421875
-0.306365966796875,0.227752685546875,0.076141357421875,-0.075439453125,0.04486083984375,-0.012664794921875
-0.15444946289061517,0.23507690429687725,-0.021865844726547096,0.07150268554688168,-0.0365753173828125,-0.052902221679688645
-0.153839111328125,0.05035400390625,0.072906494140625,0.109619140625,-0.00408935546875,-0.07269287109375
-0.14459228515625,0.1116180419921875,-0.0337982177734375,0.06915283203125,-0.0082244873046875,-0.056549072265625

-0.2108154296875,0.116943359375,0.003509521484375,-0.009552001953125,0.001007080078125,0.016326904296875
-0.1993560791015625,0.1473388671875,0.008453369140625,-0.0103607177734375,0.0013427734375,0.01434326171875
-0.13079833984375,0.290863037109375,-0.0040283203125,-0.007232666015625,-0.00128173828125,0.011199951171875
-0.17681884765625,0.2336578369140625,0.0452117919921875,0.0028228759765625,-0.0010986328125,-0.002349853515625
-0.30822753906249817,0.2031555175781267,0.026733398437503126,0.01037597656249949,0.005401611328124539,-0.02124023437499985
-0.1873779296875,0.2789764404296875,0.1088104248046875,0.02447509765625,0.019561767578125,-0.022796630859375
-0.261810302734375,0.191925048828125,-0.02886962890625,0.029937744140625,0.07354736328125,-0.054168701171875
-0.4547576904296875,0.12921142578125,-0.059661865234375,-0.00372314453125,0.042510986328125,-0.0427703857421875
-0.306365966796875,0.227752685546875,0.076141357421875,-0.075439453125,0.04486083984375,-0.012664794921875
-0.15444946289061517,0.23507690429687725,-0.021865844726547096,0.07150268554688168,-0.0365753173828125,-0.052902221679688645
-0.153839111328125,0.05035400390625,0.072906494140625,0.109619140625,-0.00408935546875,-0.07269287109375
-0.14459228515625,0.1116180419921875,-0.0337982177734375,0.06915283203125,-0.0082244873046875,-0.056549072265625
-0.0869140625,0.039581298828125,-0.031951904296875,0.067291259765625,-0.013092041015625,-0.034088134765625
-0.1240386962890625,0.00537109375,0.0010528564453125,0.0275726318359375,-0.0193328857421875,-0.0067596435546875
-0.145111083984375,-0.006500244140625,0.002288818359375,0.005889892578125,-0.015045166015625,0.0093994140625
-0.1327056884765625,0.0032806396484375,0.0216064453125,-0.0192413330078125,-0.0213775634765625,0.023895263671875
-0.23760986328125,0.40673828125,0.271392822265625,-0.01995849609375,-0.045318603515625,0.0421142578125
-0.157989501953125,0.5460968017578125,0.38677978515625,0.029876708984375,0.0050506591796875,-0.0028533935546875
-0.1705322265625,0.0015869140625,0.045654296875,-0.032684326171875,0.0093994140625,0.010101318359375
-0.5546264648437605,0.212554931640641,0.13401794433597436,-0.11959838867187408,0.0007171630859375746,0.06871032714843799

-0.306365966796875,0.227752685546875,0.076141357421875,-0.075439453125,0.04486083984375,-0.012664794921875
-0.15444946289061517,0.23507690429687725,-0.021865844726547096,0.07150268554688168,-0.0365753173828125,-0.052902221679688645
-0.153839111328125,0.05035400390625,0.072906494140625,0.109619140625,-0.00408935546875,-0.07269287109375
-0.14459228515625,0.1116180419921875,-0.0337982177734375,0.06915283203125,-0.0082244873046875,-0.056549072265625
-0.0869140625,0.039581298828125,-0.031951904296875,0.067291259765625,-0.013092041015625,-0.034088134765625
-0.1240386962890625,0.00537109375,0.0010528564453125,0.0275726318359375,-0.0193328857421875,-0.0067596435546875
-0.145111083984375,-0.006500244140625,0.002288818359375,0.005889892578125,-0.015045166015625,0.0093994140625
-0.1327056884765625,0.0032806396484375,0.0216064453125,-0.0192413330078125,-0.0213775634765625,0.023895263671875
-0.23760986328125,0.40673828125,0.271392822265625,-0.01995849609375,-0.045318603515625,0.0421142578125
-0.157989501953125,0.5460968017578125,0.38677978515625,0.029876708984375,0.0050506591796875,-0.0028533935546875
-0.1705322265625,0.0015869140625,0.045654296875,-0.032684326171875,0.0093994140625,0.010101318359375
-0.5546264648437605,0.212554931640641,0.13401794433597436,-0.11959838867187408,0.0007171630859375746,0.06871032714843799
-0.25140380859375,0.278106689453125,-0.04901123046875,0.014801025390625,-0.010589599609375,0.018768310546875
-0.140777587890625,-0.0404510498046875,-0.226776123046875,-0.087371826171875,-7.62939453125e-05,0.027801513671875
-0.208282470703125,-0.04443359375,0.022369384765625,-0.062225341796875,0.0189208984375,0.060577392578125
-0.264862060546875,0.1628570556640625,-0.0915374755859375,-0.04443359375,0.0071563720703125,0.03271484375
-0.1915283203125,0.275665283203125,0.197845458984375,0.029632568359375,0.008575439453125,0.00335693359375
-0.175811767578125,0.12908935546875,-0.068695068359375,-0.033935546875,0.0044708251953125,0.000701904296875
-0.140380859375,0.117034912109375,0.02069091796875,0.013458251953125,0.0045166015625,-0.00042724609375
-0.1464691162109375,0.189117431640625,-0.019287109375,0.0037689208984375,-0.020355224609375,0.0086822509765625

-0.23760986328125,0.40673828125,0.271392822265625,-0.01995849609375,-0.045318603515625,0.0421142578125
-0.157989501953125,0.5460968017578125,0.38677978515625,0.029876708984375,0.0050506591796875,-0.0028533935546875
-0.1705322265625,0.0015869140625,0.045654296875,-0.032684326171875,0.0093994140625,0.010101318359375
-0.5546264648437605,0.212554931640641,0.13401794433597436,-0.11959838867187408,0.0007171630859375746,0.06871032714843799
-0.25140380859375,0.278106689453125,-0.04901123046875,0.014801025390625,-0.010589599609375,0.018768310546875
-0.140777587890625,-0.0404510498046875,-0.226776123046875,-0.087371826171875,-7.62939453125e-05,0.027801513671875
-0.208282470703125,-0.04443359375,0.022369384765625,-0.062225341796875,0.0189208984375,0.060577392578125
-0.264862060546875,0.1628570556640625,-0.0915374755859375,-0.04443359375,0.0071563720703125,0.03271484375
-0.1915283203125,0.275665283203125,0.197845458984375,0.029632568359375,0.008575439453125,0.00335693359375
-0.175811767578125,0.12908935546875,-0.068695068359375,-0.033935546875,0.0044708251953125,0.000701904296875
-0.140380859375,0.117034912109375,0.02069091796875,0.013458251953125,0.0045166015625,-0.00042724609375
-0.1464691162109375,0.189117431640625,-0.019287109375,0.0037689208984375,-0.020355224609375,0.0086822509765625
-0.173797607421875,0.157684326171875,0.066009521484375,-0.0032958984375,-0.02349853515625,0.00775146484375
-0.199691772460938,0.10060119628906053,0.01646423339843549,0.004684448242187661,-0.0037994384765623335,0.008850097656250059
-0.203277587890625,0.11529541015625,0.01104736328125,-0.008392333984375,-0.00274658203125,0.0155029296875
-0.2047271728515625,0.1674652099609375,-0.013885498046875,-0.012969970703125,0.0009765624999999998,0.014617919921875
-0.15298461914062605,0.28482055664062245,0.08322143554687411,-0.013702392578124474,-0.008514404296874068,0.01068115234374949
-0.224151611328125,0.241119384765625,0.0640106201171875,0.0047149658203125,0.003570556640625,-0.0103607177734375
-0.193267822265625,0.276947021484375,0.08001708984375,0.01953125,0.018768310546875,-0.0220947265625
-0.250701904296875,0.1977081298828125,0.0431060791015625,0.032684326171875,0.0660858154296875,-0.050079345703125

-0.1915283203125,0.275665283203125,0.197845458984375,0.029632568359375,0.008575439453125,0.00335693359375
-0.175811767578125,0.12908935546875,-0.068695068359375,-0.033935546875,0.0044708251953125,0.000701904296875
-0.140380859375,0.117034912109375,0.02069091796875,0.013458251953125,0.0045166015625,-0.00042724609375
-0.1464691162109375,0.189117431640625,-0.019287109375,0.0037689208984375,-0.020355224609375,0.0086822509765625
-0.173797607421875,0.157684326171875,0.066009521484375,-0.0032958984375,-0.02349853515625,0.00775146484375
-0.199691772460938,0.10060119628906053,0.01646423339843549,0.004684448242187661,-0.0037994384765623335,0.008850097656250059
-0.203277587890625,0.11529541015625,0.01104736328125,-0.008392333984375,-0.00274658203125,0.0155029296875
-0.2047271728515625,0.1674652099609375,-0.013885498046875,-0.012969970703125,0.0009765624999999998,0.014617919921875
-0.15298461914062605,0.28482055664062245,0.08322143554687411,-0.013702392578124474,-0.008514404296874068,0.01068115234374949
-0.224151611328125,0.241119384765625,0.0640106201171875,0.0047149658203125,0.003570556640625,-0.0103607177734375
-0.193267822265625,0.276947021484375,0.08001708984375,0.01953125,0.018768310546875,-0.0220947265625
-0.250701904296875,0.1977081298828125,0.0431060791015625,0.032684326171875,0.0660858154296875,-0.050079345703125
-0.26605224609375,0.203369140625,-0.11529541015625,0.0128173828125,0.06341552734375,-0.057281494140625
-0.4383850097656108,0.09652709960938034,0.024169921875008556,-0.04109191894531625,0.06359863281250135,-0.021835327148436674
-0.308868408203125,0.2637939453125,-0.013763427734375,-0.05682373046875,0.021209716796875,-0.0230712890625
-0.18252563476562111,0.29335021972656194,0.048049926757819314,0.10691833496093905,-0.016860961914060935,-0.0655975341796887
-0.160797119140625,0.087066650390625,-0.033233642578125,0.06396484375,-0.007965087890625,-0.0506591796875
-0.09783935546875,0.046600341796875,-0.0296478271484375,0.0623931884765625,-0.0137786865234375,-0.0304107666015625
-0.08877563476562571,0.03277587890624834,-0.017272949218748317,0.04385375976562324,-0.020233154296874934,-0.014373779296873829
-0.1260986328125,-0.0101165771484375,0.017120361328125,0.0151519775390625,-0.016693115234375,0.0062103271484375

-0.15298461914062605,0.28482055664062245,0.08322143554687411,-0.013702392578124474,-0.008514404296874068,0.01068115234374949
-0.224151611328125,0.241119384765625,0.0640106201171875,0.0047149658203125,0.003570556640625,-0.0103607177734375
-0.193267822265625,0.276947021484375,0.08001708984375,0.01953125,0.018768310546875,-0.0220947265625
-0.250701904296875,0.1977081298828125,0.0431060791015625,0.032684326171875,0.0660858154296875,-0.050079345703125
-0.26605224609375,0.203369140625,-0.11529541015625,0.0128173828125,0.06341552734375,-0.057281494140625
-0.4383850097656108,0.09652709960938034,0.024169921875008556,-0.04109191894531625,0.06359863281250135,-0.021835327148436674
-0.308868408203125,0.2637939453125,-0.013763427734375,-0.05682373046875,0.021209716796875,-0.0230712890625
-0.18252563476562111,0.29335021972656194,0.048049926757819314,0.10691833496093905,-0.016860961914060935,-0.0655975341796887
-0.160797119140625,0.087066650390625,-0.033233642578125,0.06396484375,-0.007965087890625,-0.0506591796875
-0.09783935546875,0.046600341796875,-0.0296478271484375,0.0623931884765625,-0.0137786865234375,-0.0304107666015625
-0.08877563476562571,0.03277587890624834,-0.017272949218748317,0.04385375976562324,-0.020233154296874934,-0.014373779296873829
-0.1260986328125,-0.0101165771484375,0.017120361328125,0.0151519775390625,-0.016693115234375,0.0062103271484375
-0.13232421875,0.0283203125,0.035491943359375,-0.021026611328125,-0.0220947265625,0.03656005859375
-0.212249755859375,0.28179931640625,0.2158660888671875,-0.0106658935546875,-0.03570556640625,0.030487060546875
-0.08758544921875,0.50152587890625,0.36077880859375,0.008270263671875,0.011627197265625,-0.011138916015625
-0.13455200195312755,0.04414367675780109,0.07310485839842364,0.006515502929683014,0.008895874023437595,-0.010406494140623222
-0.371612548828125,0.037872314453125,-0.276824951171875,-0.126953125,0.004852294921875,0.07373046875
-0.4647369384765438,0.3292083740234255,0.326187133789028,0.007827758789064252,-0.017532348632812285,0.04943847656249623
-0.103424072265625,-0.104339599609375,-0.159820556640625,-0.06719970703125,0.00946044921875,0.057342529296875
-0.1871795654296875,-0.0561676025390625,0.00531005859375,-0.07769775390625,0.0128631591796875,0.07122802734375

-0.160797119140625,0.087066650390625,-0.033233642578125,0.06396484375,-0.007965087890625,-0.0506591796875
-0.09783935546875,0.046600341796875,-0.0296478271484375,0.0623931884765625,-0.0137786865234375,-0.0304107666015625
-0.08877563476562571,0.03277587890624834,-0.017272949218748317,0.04385375976562324,-0.020233154296874934,-0.014373779296873829
-0.1260986328125,-0.0101165771484375,0.017120361328125,0.0151519775390625,-0.016693115234375,0.0062103271484375
-0.13232421875,0.0283203125,0.035491943359375,-0.021026611328125,-0.0220947265625,0.03656005859375
-0.212249755859375,0.28179931640625,0.2158660888671875,-0.0106658935546875,-0.03570556640625,0.030487060546875
-0.08758544921875,0.50152587890625,0.36077880859375,0.008270263671875,0.011627197265625,-0.011138916015625
-0.13455200195312755,0.04414367675780109,0.07310485839842364,0.006515502929683014,0.008895874023437595,-0.010406494140623222
-0.371612548828125,0.037872314453125,-0.276824951171875,-0.126953125,0.004852294921875,0.07373046875
-0.4647369384765438,0.3292083740234255,0.326187133789028,0.007827758789064252,-0.017532348632812285,0.04943847656249623
-0.103424072265625,-0.104339599609375,-0.159820556640625,-0.06719970703125,0.00946044921875,0.057342529296875
-0.1871795654296875,-0.0561676025390625,0.00531005859375,-0.07769775390625,0.0128631591796875,0.07122802734375
-0.2929382324218715,0.16744995117187922,-0.19128417968749736,-0.050262451171873626,-0.001129150390625309,0.04235839843749922
-0.1460418701171875,0.3072509765625,-0.0353851318359375,0.0056915283203125,0.022491455078125,0.03509521484375
-0.296478271484375,-0.052734375,0.14984130859375,0.038543701171875,-0.018157958984375,-0.001708984375
-0.2080535888671875,0.09271240234375,-0.08056640625,0.0548858642578125,0.00909423828125,-0.0184173583984375
-0.180633544921875,0.14752197265625,0.0006103515625,-0.051483154296875,-0.0225830078125,0.008941650390625
-0.19490051269531364,0.11968994140624761,0.046447753906249556,-0.025695800781248695,-0.012786865234374323,0.011627197265625331
-0.205108642578125,0.10400390625,0.0379638671875,-0.017120361328125,0.0015869140625,0.0162353515625
-0.1873626708984367,0.1572418212890648,0.0012969970703105571,-0.0033111572265627667,0.012695312499999934,0.021957397460937524

-0.371612548828125,0.037872314453125,-0.276824951171875,-0.126953125,0.004852294921875,0.07373046875
-0.4647369384765438,0.3292083740234255,0.326187133789028,0.007827758789064252,-0.017532348632812285,0.04943847656249623
-0.103424072265625,-0.104339599609375,-0.159820556640625,-0.06719970703125,0.00946044921875,0.057342529296875
-0.1871795654296875,-0.0561676025390625,0.00531005859375,-0.07769775390625,0.0128631591796875,0.07122802734375
-0.2929382324218715,0.16744995117187922,-0.19128417968749736,-0.050262451171873626,-0.001129150390625309,0.04235839843749922
-0.1460418701171875,0.3072509765625,-0.0353851318359375,0.0056915283203125,0.022491455078125,0.03509521484375
-0.296478271484375,-0.052734375,0.14984130859375,0.038543701171875,-0.018157958984375,-0.001708984375
-0.2080535888671875,0.09271240234375,-0.08056640625,0.0548858642578125,0.00909423828125,-0.0184173583984375
-0.180633544921875,0.14752197265625,0.0006103515625,-0.051483154296875,-0.0225830078125,0.008941650390625
-0.19490051269531364,0.11968994140624761,0.046447753906249556,-0.025695800781248695,-0.012786865234374323,0.011627197265625331
-0.205108642578125,0.10400390625,0.0379638671875,-0.017120361328125,0.0015869140625,0.0162353515625
-0.1873626708984367,0.1572418212890648,0.0012969970703105571,-0.0033111572265627667,0.012695312499999934,0.021957397460937524
-0.169189453125,0.209381103515625,-0.00140380859375,-0.012054443359375,-0.000518798828125,0.0184326171875
-0.1672515869140625,0.2615814208984375,-0.0068359375000000035,-0.0094146728515625,-0.0124664306640625,0.011474609375
-0.16528320312500602,0.23999023437500075,0.028106689453131835,-0.008789062499999615,-0.030883789062499077,0.0075988769531237935
-0.2523651123046875,0.276947021484375,0.051666259765625,0.0117645263671875,0.0210418701171875,-0.0194244384765625
-0.2421875,0.234039306640625,0.217803955078125,0.0286865234375,0.011016845703125,-0.036956787109375
-0.30682373046875,0.1641998291015625,0.0037994384765625,0.0270233154296875,0.058013916015625,-0.0535736083984375
-0.441558837890625,0.10577392578125,-0.049102783203125,-0.029693603515625,0.060882568359375,-0.025909423828125
-0.3644409179687483,0.19892883300781875,0.10111999511718511,-0.07194519042968771,0.07006835937499986,-0.01884460449218714

-0.180633544921875,0.14752197265625,0.0006103515625,-0.051483154296875,-0.0225830078125,0.008941650390625
-0.19490051269531364,0.11968994140624761,0.046447753906249556,-0.025695800781248695,-0.012786865234374323,0.011627197265625331
-0.205108642578125,0.10400390625,0.0379638671875,-0.017120361328125,0.0015869140625,0.0162353515625
-0.1873626708984367,0.1572418212890648,0.0012969970703105571,-0.0033111572265627667,0.012695312499999934,0.021957397460937524
-0.169189453125,0.209381103515625,-0.00140380859375,-0.012054443359375,-0.000518798828125,0.0184326171875
-0.1672515869140625,0.2615814208984375,-0.0068359375000000035,-0.0094146728515625,-0.0124664306640625,0.011474609375
-0.16528320312500602,0.23999023437500075,0.028106689453131835,-0.008789062499999615,-0.030883789062499077,0.0075988769531237935
-0.2523651123046875,0.276947021484375,0.051666259765625,0.0117645263671875,0.0210418701171875,-0.0194244384765625
-0.2421875,0.234039306640625,0.217803955078125,0.0286865234375,0.011016845703125,-0.036956787109375
-0.30682373046875,0.1641998291015625,0.0037994384765625,0.0270233154296875,0.058013916015625,-0.0535736083984375
-0.441558837890625,0.10577392578125,-0.049102783203125,-0.029693603515625,0.060882568359375,-0.025909423828125
-0.3644409179687483,0.19892883300781875,0.10111999511718511,-0.07194519042968771,0.07006835937499986,-0.01884460449218714
-0.222320556640625,0.25067138671875,-0.116912841796875,0.034942626953125,-0.013031005859375,-0.03814697265625
-0.21385192871093772,0.029373168945311737,0.00965881347656225,0.0824890136718742,0.005249023437499813,-0.07182312011718707
-0.16796875,0.113494873046875,-0.0224609375,0.074462890625,-0.00750732421875,-0.052215576171875
-0.1009063720703125,0.0643463134765625,-0.029205322265625,0.054962158203125,-0.010040283203125,-0.03582763671875
-0.0975341796875021,0.01354980468749948,0.007904052734375033,0.031127929687499386,-0.014404296874999943,-0.007354736328124374
-0.11761474609375,0.0143280029296875,0.0040435791015625,0.0092926025390625,-0.0091552734375,0.0144805908203125
-0.138946533203125,0.070220947265625,0.035369873046875,-0.0048828125,-0.0380859375,0.02423095703125
-0.237030029296875,0.2313385009765625,0.1710357666015625,-0.014495849609375,-0.0408477783203125,0.0212554931640625

-0.2421875,0.234039306640625,0.217803955078125,0.0286865234375,0.011016845703125,-0.036956787109375
-0.30682373046875,0.1641998291015625,0.0037994384765625,0.0270233154296875,0.058013916015625,-0.0535736083984375
-0.441558837890625,0.10577392578125,-0.049102783203125,-0.029693603515625,0.060882568359375,-0.025909423828125
-0.3644409179687483,0.19892883300781875,0.10111999511718511,-0.07194519042968771,0.07006835937499986,-0.01884460449218714
-0.222320556640625,0.25067138671875,-0.116912841796875,0.034942626953125,-0.013031005859375,-0.03814697265625
-0.21385192871093772,0.029373168945311737,0.00965881347656225,0.0824890136718742,0.005249023437499813,-0.07182312011718707
-0.16796875,0.113494873046875,-0.0224609375,0.074462890625,-0.00750732421875,-0.052215576171875
-0.1009063720703125,0.0643463134765625,-0.029205322265625,0.054962158203125,-0.010040283203125,-0.03582763671875
-0.0975341796875021,0.01354980468749948,0.007904052734375033,0.031127929687499386,-0.014404296874999943,-0.007354736328124374
-0.11761474609375,0.0143280029296875,0.0040435791015625,0.0092926025390625,-0.0091552734375,0.0144805908203125
-0.138946533203125,0.070220947265625,0.035369873046875,-0.0048828125,-0.0380859375,0.02423095703125
-0.237030029296875,0.2313385009765625,0.1710357666015625,-0.014495849609375,-0.0408477783203125,0.0212554931640625
-0.08441162109375,0.584197998046875,0.380401611328125,-0.00335693359375,0.007659912109375,-0.0059814453125
-0.18037414550781516,0.10066223144530537,0.10974121093749697,-0.012176513671878702,0.008255004882813098,-0.012329101562498558
-0.39373779296875,0.05975341796875,-0.17352294921875,-0.11578369140625,0.001678466796875,0.06591796875
-0.47302246093747913,0.2668457031249798,0.22555541992185285,-0.05738830566405899,0.0004730224609375746,0.049835205078121586
-0.214813232421875,-0.062164306640625,-0.100616455078125,-0.136322021484375,0.006805419921875,0.079345703125
-0.2419891357421875,0.057159423828125,-0.12542724609375,-0.0492401123046875,0.0142669677734375,0.06005859375
-0.1793518066406137,0.27966308593751615,-0.12548828124998254,-0.047546386718744275,0.013305664062502654,0.02746582031250164
-0.23175048828125,0.1664886474609375,0.172515869140625,0.0819549560546875,-0.0428314208984375,-0.0010375976562500017

-0.0975341796875021,0.01354980468749948,0.007904052734375033,0.031127929687499386,-0.014404296874999943,-0.007354736328124374
-0.11761474609375,0.0143280029296875,0.0040435791015625,0.0092926025390625,-0.0091552734375,0.0144805908203125
-0.138946533203125,0.070220947265625,0.035369873046875,-0.0048828125,-0.0380859375,0.02423095703125
-0.237030029296875,0.2313385009765625,0.1710357666015625,-0.014495849609375,-0.0408477783203125,0.0212554931640625
-0.08441162109375,0.584197998046875,0.380401611328125,-0.00335693359375,0.007659912109375,-0.0059814453125
-0.18037414550781516,0.10066223144530537,0.10974121093749697,-0.012176513671878702,0.008255004882813098,-0.012329101562498558
-0.39373779296875,0.05975341796875,-0.17352294921875,-0.11578369140625,0.001678466796875,0.06591796875
-0.47302246093747913,0.2668457031249798,0.22555541992185285,-0.05738830566405899,0.0004730224609375746,0.049835205078121586
-0.214813232421875,-0.062164306640625,-0.100616455078125,-0.136322021484375,0.006805419921875,0.079345703125
-0.2419891357421875,0.057159423828125,-0.12542724609375,-0.0492401123046875,0.0142669677734375,0.06005859375
-0.1793518066406137,0.27966308593751615,-0.12548828124998254,-0.047546386718744275,0.013305664062502654,0.02746582031250164
-0.23175048828125,0.1664886474609375,0.172515869140625,0.0819549560546875,-0.0428314208984375,-0.0010375976562500017
-0.229705810546875,0.083251953125,-0.035552978515625,0.011444091796875,-0.007720947265625,-0.00421142578125
-0.1490936279296875,0.098052978515625,-0.0113983154296875,0.0221099853515625,0.0110626220703125,-0.0135040283203125
-0.190155029296875,0.104339599609375,0.037750244140625,-0.06219482421875,-0.023712158203125,0.0023193359375
-0.19396972656250225,0.09873962402343293,0.015380859374997896,-0.010253906250000413,-0.0021820068359367168,0.011245727539063024
-0.203277587890625,0.11761474609375,0.030731201171875,-0.018402099609375,-0.0081787109375,0.02117919921875
-0.20794677734375028,0.1375579833984386,0.018890380859373855,-0.020355224609374906,-0.003997802734374754,0.018524169921874684
-0.14361572265625,0.29180908203125,0.028594970703125,-0.004241943359375,-0.001251220703125,0.012298583984375
-0.1996307373046875,0.2181854248046875,0.05059814453125,0.0002288818359375,0.005035400390625,-0.0103912353515625

-0.214813232421875,-0.062164306640625,-0.100616455078125,-0.136322021484375,0.006805419921875,0.079345703125
-0.2419891357421875,0.057159423828125,-0.12542724609375,-0.0492401123046875,0.0142669677734375,0.06005859375
-0.1793518066406137,0.27966308593751615,-0.12548828124998254,-0.047546386718744275,0.013305664062502654,0.02746582031250164
-0.23175048828125,0.1664886474609375,0.172515869140625,0.0819549560546875,-0.0428314208984375,-0.0010375976562500017
-0.229705810546875,0.083251953125,-0.035552978515625,0.011444091796875,-0.007720947265625,-0.00421142578125
-0.1490936279296875,0.098052978515625,-0.0113983154296875,0.0221099853515625,0.0110626220703125,-0.0135040283203125
-0.190155029296875,0.104339599609375,0.037750244140625,-0.06219482421875,-0.023712158203125,0.0023193359375
-0.19396972656250225,0.09873962402343293,0.015380859374997896,-0.010253906250000413,-0.0021820068359367168,0.011245727539063024
-0.203277587890625,0.11761474609375,0.030731201171875,-0.018402099609375,-0.0081787109375,0.02117919921875
-0.20794677734375028,0.1375579833984386,0.018890380859373855,-0.020355224609374906,-0.003997802734374754,0.018524169921874684
-0.14361572265625,0.29180908203125,0.028594970703125,-0.004241943359375,-0.001251220703125,0.012298583984375
-0.1996307373046875,0.2181854248046875,0.05059814453125,0.0002288818359375,0.005035400390625,-0.0103912353515625
-0.23071289062499858,0.2714538574218774,0.09277343749999668,0.0021057128906260244,0.01342773437500061,-0.018371582031250142
-0.22845458984375,0.2765655517578125,0.16943359375,0.031951904296875,0.027130126953125,-0.03424072265625
-0.2864990234375,0.1676025390625,-0.055267333984375,0.04486083984375,0.0574951171875,-0.0570068359375
-0.357574462890625,0.1392364501953125,-0.129302978515625,0.0134429931640625,0.0535736083984375,-0.0516815185546875
-0.3856201171875,0.147491455078125,0.16351318359375,-0.077789306640625,0.058990478515625,-0.01055908203125
-0.2713623046874936,0.2845916748046922,0.0016326904296707911,0.007156372070327585,0.016143798828117707,-0.046966552734381065
-0.1593017578125,-0.033599853515625,0.042694091796875,0.126983642578125,0.0,-0.08282470703125
-0.14985656738281228,0.0861816406249995,-0.016799926757813135,0.06376647949218794,-0.00027465820312480745,-0.05967712402343746

-0.203277587890625,0.11761474609375,0.030731201171875,-0.018402099609375,-0.0081787109375,0.02117919921875
-0.20794677734375028,0.1375579833984386,0.018890380859373855,-0.020355224609374906,-0.003997802734374754,0.018524169921874684
-0.14361572265625,0.29180908203125,0.028594970703125,-0.004241943359375,-0.001251220703125,0.012298583984375
-0.1996307373046875,0.2181854248046875,0.05059814453125,0.0002288818359375,0.005035400390625,-0.0103912353515625
-0.23071289062499858,0.2714538574218774,0.09277343749999668,0.0021057128906260244,0.01342773437500061,-0.018371582031250142
-0.22845458984375,0.2765655517578125,0.16943359375,0.031951904296875,0.027130126953125,-0.03424072265625
-0.2864990234375,0.1676025390625,-0.055267333984375,0.04486083984375,0.0574951171875,-0.0570068359375
-0.357574462890625,0.1392364501953125,-0.129302978515625,0.0134429931640625,0.0535736083984375,-0.0516815185546875
-0.3856201171875,0.147491455078125,0.16351318359375,-0.077789306640625,0.058990478515625,-0.01055908203125
-0.2713623046874936,0.2845916748046922,0.0016326904296707911,0.007156372070327585,0.016143798828117707,-0.046966552734381065
-0.1593017578125,-0.033599853515625,0.042694091796875,0.126983642578125,0.0,-0.08282470703125
-0.14985656738281228,0.0861816406249995,-0.016799926757813135,0.06376647949218794,-0.00027465820312480745,-0.05967712402343746
-0.10540771484375,0.0799560546875,-0.016998291015625,0.063995361328125,-0.004150390625,-0.04803466796875
-0.082366943359375,0.0382080078125,-0.004425048828125,0.0364532470703125,-0.0134429931640625,-0.014923095703125
-0.12881469726562583,0.016784667968749,0.01956176757812513,0.03204345703124922,-0.01705932617187487,0.002777099609375729
-0.129974365234375,0.001068115234375,0.0277099609375,0.0015106201171875,-0.01336669921875,0.022247314453125
-0.21124267578125,0.2142333984375,0.19097900390625,-0.0128173828125,-0.049560546875,0.029937744140625
-0.156646728515625,0.443878173828125,0.3456268310546875,-0.00360107421875,-0.0068206787109375,0.012664794921875
-0.223388671875,0.134124755859375,0.123748779296875,0.01116943359375,-0.001953125,-0.01153564453125
-0.27943420410156394,0.06977844238281165,-0.05003356933594173,-0.06843566894531652,0.0026092529296882563,0.018615722656252567

-0.3856201171875,0.147491455078125,0.16351318359375,-0.077789306640625,0.058990478515625,-0.01055908203125
-0.2713623046874936,0.2845916748046922,0.0016326904296707911,0.007156372070327585,0.016143798828117707,-0.046966552734381065
-0.1593017578125,-0.033599853515625,0.042694091796875,0.126983642578125,0.0,-0.08282470703125
-0.14985656738281228,0.0861816406249995,-0.016799926757813135,0.06376647949218794,-0.00027465820312480745,-0.05967712402343746
-0.10540771484375,0.0799560546875,-0.016998291015625,0.063995361328125,-0.004150390625,-0.04803466796875
-0.082366943359375,0.0382080078125,-0.004425048828125,0.0364532470703125,-0.0134429931640625,-0.014923095703125
-0.12881469726562583,0.016784667968749,0.01956176757812513,0.03204345703124922,-0.01705932617187487,0.002777099609375729
-0.129974365234375,0.001068115234375,0.0277099609375,0.0015106201171875,-0.01336669921875,0.022247314453125
-0.21124267578125,0.2142333984375,0.19097900390625,-0.0128173828125,-0.049560546875,0.029937744140625
-0.156646728515625,0.443878173828125,0.3456268310546875,-0.00360107421875,-0.0068206787109375,0.012664794921875
-0.223388671875,0.134124755859375,0.123748779296875,0.01116943359375,-0.001953125,-0.01153564453125
-0.27943420410156394,0.06977844238281165,-0.05003356933594173,-0.06843566894531652,0.0026092529296882563,0.018615722656252567
-0.657379150390625,0.239349365234375,0.47021484375,-0.103515625,-0.006103515625,0.072540283203125
-0.19274902343749434,0.04302978515625102,-0.11143493652344477,-0.05715942382812758,0.006027221679687089,0.034469604492187916
-0.154296875,0.030059814453125,-0.18896484375,-0.148406982421875,0.00152587890625,0.06744384765625
-0.25335693359375,0.123260498046875,-0.069915771484375,-0.033782958984375,0.0059661865234375,0.0491790771484375
-0.08999633789062812,0.4420166015624905,0.20666503906250164,0.0028991699218808955,0.011627197265622715,0.019378662109375167
-0.2390899658203125,0.1128082275390625,0.038467407226562514,0.0118560791015625,-0.0061798095703125,0.000762939453125
-0.17108154296875,0.063812255859375,-0.140838623046875,0.078125,0.016357421875,-0.028717041015625
-0.198211669921875,0.1042022705078125,0.0561676025390625,-0.0550689697265625,-0.032684326171875,0.006805419921875

-0.21124267578125,0.2142333984375,0.19097900390625,-0.0128173828125,-0.049560546875,0.029937744140625
-0.156646728515625,0.443878173828125,0.3456268310546875,-0.00360107421875,-0.0068206787109375,0.012664794921875
-0.223388671875,0.134124755859375,0.123748779296875,0.01116943359375,-0.001953125,-0.01153564453125
-0.27943420410156394,0.06977844238281165,-0.05003356933594173,-0.06843566894531652,0.0026092529296882563,0.018615722656252567
-0.657379150390625,0.239349365234375,0.47021484375,-0.103515625,-0.006103515625,0.072540283203125
-0.19274902343749434,0.04302978515625102,-0.11143493652344477,-0.05715942382812758,0.006027221679687089,0.034469604492187916
-0.154296875,0.030059814453125,-0.18896484375,-0.148406982421875,0.00152587890625,0.06744384765625
-0.25335693359375,0.123260498046875,-0.069915771484375,-0.033782958984375,0.0059661865234375,0.0491790771484375
-0.08999633789062812,0.4420166015624905,0.20666503906250164,0.0028991699218808955,0.011627197265622715,0.019378662109375167
-0.2390899658203125,0.1128082275390625,0.038467407226562514,0.0118560791015625,-0.0061798095703125,0.000762939453125
-0.17108154296875,0.063812255859375,-0.140838623046875,0.078125,0.016357421875,-0.028717041015625
-0.198211669921875,0.1042022705078125,0.0561676025390625,-0.0550689697265625,-0.032684326171875,0.006805419921875
-0.166839599609375,0.1458740234375,0.03179931640625,-0.016937255859375,-0.028167724609375,0.00885009765625
-0.1980438232421884,0.10447692871093714,0.028656005859376082,-0.01034545898437642,-0.016708374023437274,0.011398315429688024
-0.21551513671875,0.119781494140625,0.01287841796875,-0.026702880859375,-0.006378173828125,0.022918701171875
-0.18739318847656217,0.1573638916015632,0.04518127441406316,-0.02241516113281216,-0.0046539306640622,0.019180297851562233
-0.13427734375,0.306365966796875,-0.010498046875,-0.0093994140625,0.001922607421875,0.008575439453125
-0.20745849609375,0.24481201171875,0.01898193359375,0.003692626953124999,-0.0029449462890625,-0.0053253173828125
-0.28570556640624606,0.268218994140623,0.11752319335937887,0.011444091796876402,0.026611328124999313,-0.019256591796876003
-0.2762908935546875,0.1871490478515625,0.1912384033203125,0.044219970703125,0.0253753662109375,-0.04315185546875

-0.08999633789062812,0.4420166015624905,0.20666503906250164,0.0028991699218808955,0.011627197265622715,0.019378662109375167
-0.2390899658203125,0.1128082275390625,0.038467407226562514,0.0118560791015625,-0.0061798095703125,0.000762939453125
-0.17108154296875,0.063812255859375,-0.140838623046875,0.078125,0.016357421875,-0.028717041015625
-0.198211669921875,0.1042022705078125,0.0561676025390625,-0.0550689697265625,-0.032684326171875,0.006805419921875
-0.166839599609375,0.1458740234375,0.03179931640625,-0.016937255859375,-0.028167724609375,0.00885009765625
-0.1980438232421884,0.10447692871093714,0.028656005859376082,-0.01034545898437642,-0.016708374023437274,0.011398315429688024
-0.21551513671875,0.119781494140625,0.01287841796875,-0.026702880859375,-0.006378173828125,0.022918701171875
-0.18739318847656217,0.1573638916015632,0.04518127441406316,-0.02241516113281216,-0.0046539306640622,0.019180297851562233
-0.13427734375,0.306365966796875,-0.010498046875,-0.0093994140625,0.001922607421875,0.008575439453125
-0.20745849609375,0.24481201171875,0.01898193359375,0.003692626953124999,-0.0029449462890625,-0.0053253173828125
-0.28570556640624606,0.268218994140623,0.11752319335937887,0.011444091796876402,0.026611328124999313,-0.019256591796876003
-0.2762908935546875,0.1871490478515625,0.1912384033203125,0.044219970703125,0.0253753662109375,-0.04315185546875
-0.282073974609375,0.177886962890625,-0.11273193359375,0.014984130859375,0.06500244140625,-0.063018798828125
-0.5316009521484375,0.0957794189453125,0.0520782470703125,-0.01104736328125,0.0430145263671875,-0.03509521484375
-0.366607666015625,0.201568603515625,0.158416748046875,-0.073699951171875,0.062652587890625,-0.01873779296875
-0.17379760742187833,0.04589843750000761,0.026611328124995417,0.09367370605468364,0.012466430664062889,-0.06768798828124868
-0.08233642578125,0.0380859375,-0.041290283203125,0.065948486328125,-0.0113525390625,-0.037994384765625
-0.07304382324218844,0.012969970703124263,-0.009231567382812146,0.030303955078124677,-0.02279663085937514,-0.01094055175781208
-0.114288330078125,-0.02996826171875,0.00115966796875,0.01580810546875,-0.02508544921875,0.005706787109375
-0.129913330078125,-0.015960693359375,0.007904052734375,-0.013031005859375,-0.0167694091796875,0.0275421142578125

-0.13427734375,0.306365966796875,-0.010498046875,-0.0093994140625,0.001922607421875,0.008575439453125
-0.20745849609375,0.24481201171875,0.01898193359375,0.003692626953124999,-0.0029449462890625,-0.0053253173828125
-0.28570556640624606,0.268218994140623,0.11752319335937887,0.011444091796876402,0.026611328124999313,-0.019256591796876003
-0.2762908935546875,0.1871490478515625,0.1912384033203125,0.044219970703125,0.0253753662109375,-0.04315185546875
-0.282073974609375,0.177886962890625,-0.11273193359375,0.014984130859375,0.06500244140625,-0.063018798828125
-0.5316009521484375,0.0957794189453125,0.0520782470703125,-0.01104736328125,0.0430145263671875,-0.03509521484375
-0.366607666015625,0.201568603515625,0.158416748046875,-0.073699951171875,0.062652587890625,-0.01873779296875
-0.17379760742187833,0.04589843750000761,0.026611328124995417,0.09367370605468364,0.012466430664062889,-0.06768798828124868
-0.08233642578125,0.0380859375,-0.041290283203125,0.065948486328125,-0.0113525390625,-0.037994384765625
-0.07304382324218844,0.012969970703124263,-0.009231567382812146,0.030303955078124677,-0.02279663085937514,-0.01094055175781208
-0.114288330078125,-0.02996826171875,0.00115966796875,0.01580810546875,-0.02508544921875,0.005706787109375
-0.129913330078125,-0.015960693359375,0.007904052734375,-0.013031005859375,-0.0167694091796875,0.0275421142578125
-0.2308654785156288,0.2343750000000084,0.19659423828125677,-0.018890380859374764,-0.05148315429687488,0.025299072265624768
-0.196624755859375,0.604949951171875,0.489105224609375,-0.00433349609375,-0.0110626220703125,0.0232086181640625
-0.130096435546875,0.2647705078125,0.26544189453125,0.02630615234375,0.020477294921875,-0.01812744140625
-0.2317047119140625,0.0528106689453125,-0.042572021484375,-0.05230712890625,0.0096282958984375,0.007659912109375
-0.383544921875,0.214263916015625,0.26922607421875,0.08001708984375,0.009796142578125,0.063568115234375
-0.13533020019530895,0.0825195312499736,-0.14076232910157027,-0.07051086425781526,0.0006103515625018319,0.025558471679690657
-0.156707763671875,-0.0322265625,-0.158966064453125,-0.118804931640625,0.018798828125,0.07781982421875
-0.33634948730468767,0.17137145996093667,-0.18218994140624958,-0.020141601562499174,0.005233764648438383,0.024398803710936796

-0.08233642578125,0.0380859375,-0.041290283203125,0.065948486328125,-0.0113525390625,-0.037994384765625
-0.07304382324218844,0.012969970703124263,-0.009231567382812146,0.030303955078124677,-0.02279663085937514,-0.01094055175781208
-0.114288330078125,-0.02996826171875,0.00115966796875,0.01580810546875,-0.02508544921875,0.005706787109375
-0.129913330078125,-0.015960693359375,0.007904052734375,-0.013031005859375,-0.0167694091796875,0.0275421142578125
-0.2308654785156288,0.2343750000000084,0.19659423828125677,-0.018890380859374764,-0.05148315429687488,0.025299072265624768
-0.196624755859375,0.604949951171875,0.489105224609375,-0.00433349609375,-0.0110626220703125,0.0232086181640625
-0.130096435546875,0.2647705078125,0.26544189453125,0.02630615234375,0.020477294921875,-0.01812744140625
-0.2317047119140625,0.0528106689453125,-0.042572021484375,-0.05230712890625,0.0096282958984375,0.007659912109375
-0.383544921875,0.214263916015625,0.26922607421875,0.08001708984375,0.009796142578125,0.063568115234375
-0.13533020019530895,0.0825195312499736,-0.14076232910157027,-0.07051086425781526,0.0006103515625018319,0.025558471679690657
-0.156707763671875,-0.0322265625,-0.158966064453125,-0.118804931640625,0.018798828125,0.07781982421875
-0.33634948730468767,0.17137145996093667,-0.18218994140624958,-0.020141601562499174,0.005233764648438383,0.024398803710936796
-0.0548095703125,0.408477783203125,0.206268310546875,0.052886962890625,0.015411376953125,0.027069091796875
-0.2684173583984375,0.0619964599609375,-0.0249786376953125,0.009124755859375,-0.003753662109375,0.0014648437500000002
-0.1693725585937486,0.10662841796874419,-0.04388427734374884,0.014923095703128634,0.018554687499998977,-0.0010070800781253795
-0.177490234375,0.131195068359375,0.025543212890625,-0.0424652099609375,-0.029296875,0.0071563720703125
-0.15380859375,0.169097900390625,0.0142822265625,-0.00250244140625,-0.015167236328125,0.013641357421875
-0.2187957763671875,0.0749664306640625,0.0201263427734375,-0.0073394775390625,-0.011260986328125,0.01617431640625
-0.2177734375,0.143280029296875,0.030548095703125,-0.02313232421875,-0.004791259765625,0.026885986328125
-0.22941589355469183,0.13504028320312536,0.0003967285156246045,-0.014434814453125715,-0.011383056640624474,0.015930175781249323

-0.383544921875,0.214263916015625,0.26922607421875,0.08001708984375,0.009796142578125,0.063568115234375
-0.13533020019530895,0.0825195312499736,-0.14076232910157027,-0.07051086425781526,0.0006103515625018319,0.025558471679690657
-0.156707763671875,-0.0322265625,-0.158966064453125,-0.118804931640625,0.018798828125,0.07781982421875
-0.33634948730468767,0.17137145996093667,-0.18218994140624958,-0.020141601562499174,0.005233764648438383,0.024398803710936796
-0.0548095703125,0.408477783203125,0.206268310546875,0.052886962890625,0.015411376953125,0.027069091796875
-0.2684173583984375,0.0619964599609375,-0.0249786376953125,0.009124755859375,-0.003753662109375,0.0014648437500000002
-0.1693725585937486,0.10662841796874419,-0.04388427734374884,0.014923095703128634,0.018554687499998977,-0.0010070800781253795
-0.177490234375,0.131195068359375,0.025543212890625,-0.0424652099609375,-0.029296875,0.0071563720703125
-0.15380859375,0.169097900390625,0.0142822265625,-0.00250244140625,-0.015167236328125,0.013641357421875
-0.2187957763671875,0.0749664306640625,0.0201263427734375,-0.0073394775390625,-0.011260986328125,0.01617431640625
-0.2177734375,0.143280029296875,0.030548095703125,-0.02313232421875,-0.004791259765625,0.026885986328125
-0.22941589355469183,0.13504028320312536,0.0003967285156246045,-0.014434814453125715,-0.011383056640624474,0.015930175781249323
-0.1331787109375,0.302093505859375,0.00042724609375,-0.005859375,-0.0037841796875,0.012969970703125
-0.25382995605468767,0.22224426269531272,0.010925292968747984,0.0033569335937503764,0.003509521484375027,-0.005722045898437696
-0.202484130859375,0.296600341796875,0.033538818359375,0.02496337890625,0.02069091796875,-0.024566650390625
-0.3226165771484375,0.167510986328125,0.0946197509765625,0.060455322265625,0.049530029296875,-0.0512847900390625
-0.3711853027343852,0.10531616210937224,-0.1301574707031213,0.03344726562499835,0.058044433593749556,-0.06149291992187256
-0.3912353515625,0.09039306640625,0.0831146240234375,-0.0857696533203125,0.0809478759765625,-0.0125274658203125
-0.3023681640625,0.2353515625,0.073822021484375,-0.101165771484375,0.04974365234375,-0.019073486328125
-0.132781982421875,0.2685699462890625,0.0673675537109375,0.1596527099609375,-0.0240478515625,-0.079071044921875

-0.15380859375,0.169097900390625,0.0142822265625,-0.00250244140625,-0.015167236328125,0.013641357421875
-0.2187957763671875,0.0749664306640625,0.0201263427734375,-0.0073394775390625,-0.011260986328125,0.01617431640625
-0.2177734375,0.143280029296875,0.030548095703125,-0.02313232421875,-0.004791259765625,0.026885986328125
-0.22941589355469183,0.13504028320312536,0.0003967285156246045,-0.014434814453125715,-0.011383056640624474,0.015930175781249323
-0.1331787109375,0.302093505859375,0.00042724609375,-0.005859375,-0.0037841796875,0.012969970703125
-0.25382995605468767,0.22224426269531272,0.010925292968747984,0.0033569335937503764,0.003509521484375027,-0.005722045898437696
-0.202484130859375,0.296600341796875,0.033538818359375,0.02496337890625,0.02069091796875,-0.024566650390625
-0.3226165771484375,0.167510986328125,0.0946197509765625,0.060455322265625,0.049530029296875,-0.0512847900390625
-0.3711853027343852,0.10531616210937224,-0.1301574707031213,0.03344726562499835,0.058044433593749556,-0.06149291992187256
-0.3912353515625,0.09039306640625,0.0831146240234375,-0.0857696533203125,0.0809478759765625,-0.0125274658203125
-0.3023681640625,0.2353515625,0.073822021484375,-0.101165771484375,0.04974365234375,-0.019073486328125
-0.132781982421875,0.2685699462890625,0.0673675537109375,0.1596527099609375,-0.0240478515625,-0.079071044921875
-0.168426513671875,0.08306884765625,-0.021331787109375,0.07745361328125,0.003448486328125,-0.05706787109375
-0.12519836425781158,0.09489440917968628,-0.014297485351562474,0.06645202636718744,-0.0028076171875001574,-0.04521179199218742
-0.088623046875,0.0228271484375,-0.013916015625,0.046905517578125,-0.0076904296875,-0.029541015625
-0.11244201660156404,-0.015136718750000756,0.0020599365234373794,0.02684020996093672,-0.011734008789062382,-0.0019531249999994197
-0.1190185546875,0.001739501953125,0.015045166015625,-0.01373291015625,-0.012176513671875,0.0252685546875
-0.18791198730469466,0.21398925781251535,0.16223144531251477,-0.01681518554687476,-0.03993225097656393,0.025787353515624584
-0.309600830078125,0.4290771484375,0.5498046875,-0.009521484375,-0.016876220703125,0.02545166015625
-0.12959289550782152,0.27636718749997924,0.2486572265624952,0.012191772460937703,0.01853942871093739,-0.016342163085937705

-0.3711853027343852,0.10531616210937224,-0.1301574707031213,0.03344726562499835,0.058044433593749556,-0.06149291992187256
-0.3912353515625,0.09039306640625,0.0831146240234375,-0.0857696533203125,0.0809478759765625,-0.0125274658203125
-0.3023681640625,0.2353515625,0.073822021484375,-0.101165771484375,0.04974365234375,-0.019073486328125
-0.132781982421875,0.2685699462890625,0.0673675537109375,0.1596527099609375,-0.0240478515625,-0.079071044921875
-0.168426513671875,0.08306884765625,-0.021331787109375,0.07745361328125,0.003448486328125,-0.05706787109375
-0.12519836425781158,0.09489440917968628,-0.014297485351562474,0.06645202636718744,-0.0028076171875001574,-0.04521179199218742
-0.088623046875,0.0228271484375,-0.013916015625,0.046905517578125,-0.0076904296875,-0.029541015625
-0.11244201660156404,-0.015136718750000756,0.0020599365234373794,0.02684020996093672,-0.011734008789062382,-0.0019531249999994197
-0.1190185546875,0.001739501953125,0.015045166015625,-0.01373291015625,-0.012176513671875,0.0252685546875
-0.18791198730469466,0.21398925781251535,0.16223144531251477,-0.01681518554687476,-0.03993225097656393,0.025787353515624584
-0.309600830078125,0.4290771484375,0.5498046875,-0.009521484375,-0.016876220703125,0.02545166015625
-0.12959289550782152,0.27636718749997924,0.2486572265624952,0.012191772460937703,0.01853942871093739,-0.016342163085937705
-0.1822509765625,0.016448974609375,-0.05401611328125,-0.05731201171875,0.001617431640625,0.0079345703125
-0.5484313964843537,0.17903137207028552,0.12554931640617784,-0.10491943359375007,-0.005264282226562584,0.06553649902343679
-0.2569580078125,0.17724609375,0.037261962890625,0.050323486328125,0.013824462890625,0.0325927734375
-0.11064147949218751,0.015533447265622159,-0.2303466796875041,-0.1044006347656279,0.006378173828124816,0.03488159179687644
-0.20394897460935665,0.19418334960939176,-0.10543823242185031,-0.009216308593757556,0.005371093750000867,0.01699829101562474
-0.1715545654296715,0.31594848632814404,0.19346618652343753,0.049804687499998876,0.004180908203125135,0.01296997070312604
-0.215240478515625,0.12811279296875,-0.09613037109375,0.006927490234375,-0.002532958984375,-0.003387451171875
-0.14373779296875006,0.07815551757813141,-0.02146911621092975,0.029815673828118866,0.010910034179685758,-0.011108398437499214

-0.1190185546875,0.001739501953125,0.015045166015625,-0.01373291015625,-0.012176513671875,0.0252685546875
-0.18791198730469466,0.21398925781251535,0.16223144531251477,-0.01681518554687476,-0.03993225097656393,0.025787353515624584
-0.309600830078125,0.4290771484375,0.5498046875,-0.009521484375,-0.016876220703125,0.02545166015625
-0.12959289550782152,0.27636718749997924,0.2486572265624952,0.012191772460937703,0.01853942871093739,-0.016342163085937705
-0.1822509765625,0.016448974609375,-0.05401611328125,-0.05731201171875,0.001617431640625,0.0079345703125
-0.5484313964843537,0.17903137207028552,0.12554931640617784,-0.10491943359375007,-0.005264282226562584,0.06553649902343679
-0.2569580078125,0.17724609375,0.037261962890625,0.050323486328125,0.013824462890625,0.0325927734375
-0.11064147949218751,0.015533447265622159,-0.2303466796875041,-0.1044006347656279,0.006378173828124816,0.03488159179687644
-0.20394897460935665,0.19418334960939176,-0.10543823242185031,-0.009216308593757556,0.005371093750000867,0.01699829101562474
-0.1715545654296715,0.31594848632814404,0.19346618652343753,0.049804687499998876,0.004180908203125135,0.01296997070312604
-0.215240478515625,0.12811279296875,-0.09613037109375,0.006927490234375,-0.002532958984375,-0.003387451171875
-0.14373779296875006,0.07815551757813141,-0.02146911621092975,0.029815673828118866,0.010910034179685758,-0.011108398437499214
-0.18359375,0.112762451171875,0.034759521484375,-0.048431396484375,-0.02899169921875,0.013580322265625
-0.18061828613281425,0.1351928710937461,0.029815673828127498,-0.010498046874999794,-0.010330200195311825,0.010086059570312616
-0.20751953125,0.078460693359375,0.01995849609375,-0.017669677734375,-0.00372314453125,0.01666259765625
-0.21974182128906397,0.10511779785155993,0.014877319335937236,-0.020736694335938104,-0.005432128906250032,0.02172851562500024
-0.153533935546875,0.263397216796875,0.03057861328125,-0.006195068359375,-0.0040283203125,0.013336181640625
-0.2023620605468791,0.23835754394530864,0.0036773681640634836,0.009857177734375933,-0.01084899902343798,-0.00018310546875066657
-0.25964355468749656,0.2776489257812488,0.10256958007811141,0.010406494140625954,0.005828857421878263,-0.013702392578125808
-0.23178100585937372,0.26429748535156894,0.09169006347654629,0.026016235351560973,0.03309631347656214,-0.036117553710936334

-0.20394897460935665,0.19418334960939176,-0.10543823242185031,-0.009216308593757556,0.005371093750000867,0.01699829101562474
-0.1715545654296715,0.31594848632814404,0.19346618652343753,0.049804687499998876,0.004180908203125135,0.01296997070312604
-0.215240478515625,0.12811279296875,-0.09613037109375,0.006927490234375,-0.002532958984375,-0.003387451171875
-0.14373779296875006,0.07815551757813141,-0.02146911621092975,0.029815673828118866,0.010910034179685758,-0.011108398437499214
-0.18359375,0.112762451171875,0.034759521484375,-0.048431396484375,-0.02899169921875,0.013580322265625
-0.18061828613281425,0.1351928710937461,0.029815673828127498,-0.010498046874999794,-0.010330200195311825,0.010086059570312616
-0.20751953125,0.078460693359375,0.01995849609375,-0.017669677734375,-0.00372314453125,0.01666259765625
-0.21974182128906397,0.10511779785155993,0.014877319335937236,-0.020736694335938104,-0.005432128906250032,0.02172851562500024
-0.153533935546875,0.263397216796875,0.03057861328125,-0.006195068359375,-0.0040283203125,0.013336181640625
-0.2023620605468791,0.23835754394530864,0.0036773681640634836,0.009857177734375933,-0.01084899902343798,-0.00018310546875066657
-0.25964355468749656,0.2776489257812488,0.10256958007811141,0.010406494140625954,0.005828857421878263,-0.013702392578125808
-0.23178100585937372,0.26429748535156894,0.09169006347654629,0.026016235351560973,0.03309631347656214,-0.036117553710936334
-0.34161376953125,0.124481201171875,-0.086090087890625,0.0037841796875,0.05352783203125,-0.047515869140625
-0.3768920898437496,0.11532592773437975,0.14730834960938338,-0.11112976074219102,0.07521057128906233,-0.014968872070312432
-0.3262939453125,0.28375244140625,-0.254425048828125,0.104034423828125,-0.0404052734375,-0.0545654296875
-0.1549224853515666,0.049926757812507876,0.03436279296874008,0.10153198242187067,0.020553588867186386,-0.058029174804687354
-0.103302001953125,0.081695556640625,-0.033599853515625,0.074127197265625,-0.00445556640625,-0.04339599609375
-0.09031677246093713,0.03842163085937571,-0.002304077148437703,0.048233032226563013,-0.012374877929687346,-0.021240234375000437
-0.112030029296875,0.013092041015625,0.003326416015625,0.0347900390625,-0.016845703125,-0.007843017578125
-0.11703491210937467,-0.012008666992187405,-0.0035705566406250815,0.004241943359374398,-0.013732910156249957,0.012283325195313239

-0.153533935546875,0.263397216796875,0.03057861328125,-0.006195068359375,-0.0040283203125,0.013336181640625
-0.2023620605468791,0.23835754394530864,0.0036773681640634836,0.009857177734375933,-0.01084899902343798,-0.00018310546875066657
-0.25964355468749656,0.2776489257812488,0.10256958007811141,0.010406494140625954,0.005828857421878263,-0.013702392578125808
-0.23178100585937372,0.26429748535156894,0.09169006347654629,0.026016235351560973,0.03309631347656214,-0.036117553710936334
-0.34161376953125,0.124481201171875,-0.086090087890625,0.0037841796875,0.05352783203125,-0.047515869140625
-0.3768920898437496,0.11532592773437975,0.14730834960938338,-0.11112976074219102,0.07521057128906233,-0.014968872070312432
-0.3262939453125,0.28375244140625,-0.254425048828125,0.104034423828125,-0.0404052734375,-0.0545654296875
-0.1549224853515666,0.049926757812507876,0.03436279296874008,0.10153198242187067,0.020553588867186386,-0.058029174804687354
-0.103302001953125,0.081695556640625,-0.033599853515625,0.074127197265625,-0.00445556640625,-0.04339599609375
-0.09031677246093713,0.03842163085937571,-0.002304077148437703,0.048233032226563013,-0.012374877929687346,-0.021240234375000437
-0.112030029296875,0.013092041015625,0.003326416015625,0.0347900390625,-0.016845703125,-0.007843017578125
-0.11703491210937467,-0.012008666992187405,-0.0035705566406250815,0.004241943359374398,-0.013732910156249957,0.012283325195313239
-0.099029541015625,0.057525634765625,0.045562744140625,-0.02587890625,-0.030670166015625,0.0257568359375
-0.22480773925780434,0.26043701171873423,0.23861694335936162,-0.021789550781250656,-0.04447937011718977,0.03219604492187456
-0.108795166015625,0.46307373046875,0.325653076171875,0.0123291015625,0.016265869140625,-0.0064697265625
-0.1972503662109411,0.09419250488280094,0.18487548828124453,0.030975341796873727,0.010253906249998439,-0.020019531249999133
-0.53814697265625,0.096099853515625,-0.201385498046875,-0.1507568359375,-0.01214599609375,0.08636474609375
-0.16319274902342612,0.10673522949217486,-0.09365844726563308,-0.01539611816406717,0.004821777343749528,0.008941650390625243
-0.096832275390625,-0.015380859375,-0.20318603515625,-0.119049072265625,0.00042724609375,0.054931640625
-0.19947814941405273,0.005813598632809544,-0.14419555664061842,-0.07287597656250101,0.008743286132813565,0.07151794433593821

-0.103302001953125,0.081695556640625,-0.033599853515625,0.074127197265625,-0.00445556640625,-0.04339599609375
-0.09031677246093713,0.03842163085937571,-0.002304077148437703,0.048233032226563013,-0.012374877929687346,-0.021240234375000437
-0.112030029296875,0.013092041015625,0.003326416015625,0.0347900390625,-0.016845703125,-0.007843017578125
-0.11703491210937467,-0.012008666992187405,-0.0035705566406250815,0.004241943359374398,-0.013732910156249957,0.012283325195313239
-0.099029541015625,0.057525634765625,0.045562744140625,-0.02587890625,-0.030670166015625,0.0257568359375
-0.22480773925780434,0.26043701171873423,0.23861694335936162,-0.021789550781250656,-0.04447937011718977,0.03219604492187456
-0.108795166015625,0.46307373046875,0.325653076171875,0.0123291015625,0.016265869140625,-0.0064697265625
-0.1972503662109411,0.09419250488280094,0.18487548828124453,0.030975341796873727,0.010253906249998439,-0.020019531249999133
-0.53814697265625,0.096099853515625,-0.201385498046875,-0.1507568359375,-0.01214599609375,0.08636474609375
-0.16319274902342612,0.10673522949217486,-0.09365844726563308,-0.01539611816406717,0.004821777343749528,0.008941650390625243
-0.096832275390625,-0.015380859375,-0.20318603515625,-0.119049072265625,0.00042724609375,0.054931640625
-0.19947814941405273,0.005813598632809544,-0.14419555664061842,-0.07287597656250101,0.008743286132813565,0.07151794433593821
-0.183868408203125,0.172760009765625,-0.021331787109375,-0.049072265625,0.01605224609375,0.026031494140625
-0.17343139648437284,0.21810913085936084,0.1711120605468597,0.017791748046871742,0.005035400390626388,0.010299682617189958
-0.18743896484375,0.0963134765625,-0.087890625,-0.049835205078125,0.0001220703125,-0.003387451171875
-0.12773132324218978,0.13284301757812203,-0.0036315917968816336,0.015182495117186088,0.01855468750000051,-0.009368896484375168
-0.174560546875,0.107879638671875,0.037200927734375,0.0118408203125,-0.020477294921875,0.003997802734375
-0.15002441406249958,0.17436218261718786,-0.008651733398435146,0.0009460449218733902,-0.017242431640624913,0.011474609375000265
-0.191986083984375,0.147430419921875,0.029632568359375,-0.008575439453125,-0.0184326171875,0.014923095703125
-0.2077789306640618,0.11805725097656401,0.028198242187500576,-0.01618957519531241,-0.0036926269531250325,0.020645141601562583

-0.53814697265625,0.096099853515625,-0.201385498046875,-0.1507568359375,-0.01214599609375,0.08636474609375
-0.16319274902342612,0.10673522949217486,-0.09365844726563308,-0.01539611816406717,0.004821777343749528,0.008941650390625243
-0.096832275390625,-0.015380859375,-0.20318603515625,-0.119049072265625,0.00042724609375,0.054931640625
-0.19947814941405273,0.005813598632809544,-0.14419555664061842,-0.07287597656250101,0.008743286132813565,0.07151794433593821
-0.183868408203125,0.172760009765625,-0.021331787109375,-0.049072265625,0.01605224609375,0.026031494140625
-0.17343139648437284,0.21810913085936084,0.1711120605468597,0.017791748046871742,0.005035400390626388,0.010299682617189958
-0.18743896484375,0.0963134765625,-0.087890625,-0.049835205078125,0.0001220703125,-0.003387451171875
-0.12773132324218978,0.13284301757812203,-0.0036315917968816336,0.015182495117186088,0.01855468750000051,-0.009368896484375168
-0.174560546875,0.107879638671875,0.037200927734375,0.0118408203125,-0.020477294921875,0.003997802734375
-0.15002441406249958,0.17436218261718786,-0.008651733398435146,0.0009460449218733902,-0.017242431640624913,0.011474609375000265
-0.191986083984375,0.147430419921875,0.029632568359375,-0.008575439453125,-0.0184326171875,0.014923095703125
-0.2077789306640618,0.11805725097656401,0.028198242187500576,-0.01618957519531241,-0.0036926269531250325,0.020645141601562583
-0.217742919921875,0.1229248046875,-0.009552001953125,-0.002685546875,-0.00177001953125,0.014007568359375
-0.13677978515625494,0.31015014648436684,-0.03549194335937313,-0.0006866455078130065,-0.0034942626953120854,0.010070800781250087
-0.30206298828125,0.20367431640625,0.04400634765625,0.00897216796875,-0.001312255859375,-0.01495361328125
-0.20248413085937533,0.23254394531249745,0.11940002441406908,0.021621704101563912,0.03334045410156197,-0.02984619140625051
-0.378814697265625,0.133758544921875,-0.037811279296875,0.0064697265625,0.056610107421875,-0.0447998046875
-0.4359436035156316,0.12702941894529934,0.13436889648436562,-0.06506347656249534,0.06327819824218903,-0.01342773437499975
-0.13525390625,0.37176513671875,0.0054931640625,0.113250732421875,-0.02203369140625,-0.080108642578125
-0.14988708496094094,0.038589477539056775,0.06649780273437006,0.098220825195305,0.006683349609378018,-0.07075500488280997

-0.174560546875,0.107879638671875,0.037200927734375,0.0118408203125,-0.020477294921875,0.003997802734375
-0.15002441406249958,0.17436218261718786,-0.008651733398435146,0.0009460449218733902,-0.017242431640624913,0.011474609375000265
-0.191986083984375,0.147430419921875,0.029632568359375,-0.008575439453125,-0.0184326171875,0.014923095703125
-0.2077789306640618,0.11805725097656401,0.028198242187500576,-0.01618957519531241,-0.0036926269531250325,0.020645141601562583
-0.217742919921875,0.1229248046875,-0.009552001953125,-0.002685546875,-0.00177001953125,0.014007568359375
-0.13677978515625494,0.31015014648436684,-0.03549194335937313,-0.0006866455078130065,-0.0034942626953120854,0.010070800781250087
-0.30206298828125,0.20367431640625,0.04400634765625,0.00897216796875,-0.001312255859375,-0.01495361328125
-0.20248413085937533,0.23254394531249745,0.11940002441406908,0.021621704101563912,0.03334045410156197,-0.02984619140625051
-0.378814697265625,0.133758544921875,-0.037811279296875,0.0064697265625,0.056610107421875,-0.0447998046875
-0.4359436035156316,0.12702941894529934,0.13436889648436562,-0.06506347656249534,0.06327819824218903,-0.01342773437499975
-0.13525390625,0.37176513671875,0.0054931640625,0.113250732421875,-0.02203369140625,-0.080108642578125
-0.14988708496094094,0.038589477539056775,0.06649780273437006,0.098220825195305,0.006683349609378018,-0.07075500488280997
-0.17156982421875,0.109619140625,-0.020843505859375,0.063140869140625,0.00115966796875,-0.051422119140625
-0.10594177246093384,0.030532836914055735,-0.03695678710937402,0.07135009765624929,-0.0101013183593755,-0.0379333496093739
-0.08319091796875,-0.002197265625,-0.008270263671875,0.043731689453125,-0.0205078125,-0.016998291015625
-0.10105895996093642,-0.023864746093749847,-0.008514404296874582,0.017898559570314658,-0.02041625976562507,0.00032043457031110355
-0.125213623046875,0.035614013671875,0.032684326171875,-0.029266357421875,-0.03173828125,0.032501220703125
-0.246063232421883,0.2826385498047108,0.24447631835939962,-0.02494812011718569,-0.04840087890624939,0.03585815429687494
-0.1961669921875,0.807037353515625,0.5115966796875,0.031829833984375,0.00970458984375,-0.009429931640625
-0.22073364257812833,0.015777587890626388,0.12583923339844344,-0.007751464843746905,0.0070190429687503365,-0.006744384765626457

-0.378814697265625,0.133758544921875,-0.037811279296875,0.0064697265625,0.056610107421875,-0.0447998046875
-0.4359436035156316,0.12702941894529934,0.13436889648436562,-0.06506347656249534,0.06327819824218903,-0.01342773437499975
-0.13525390625,0.37176513671875,0.0054931640625,0.113250732421875,-0.02203369140625,-0.080108642578125
-0.14988708496094094,0.038589477539056775,0.06649780273437006,0.098220825195305,0.006683349609378018,-0.07075500488280997
-0.17156982421875,0.109619140625,-0.020843505859375,0.063140869140625,0.00115966796875,-0.051422119140625
-0.10594177246093384,0.030532836914055735,-0.03695678710937402,0.07135009765624929,-0.0101013183593755,-0.0379333496093739
-0.08319091796875,-0.002197265625,-0.008270263671875,0.043731689453125,-0.0205078125,-0.016998291015625
-0.10105895996093642,-0.023864746093749847,-0.008514404296874582,0.017898559570314658,-0.02041625976562507,0.00032043457031110355
-0.125213623046875,0.035614013671875,0.032684326171875,-0.029266357421875,-0.03173828125,0.032501220703125
-0.246063232421883,0.2826385498047108,0.24447631835939962,-0.02494812011718569,-0.04840087890624939,0.03585815429687494
-0.1961669921875,0.807037353515625,0.5115966796875,0.031829833984375,0.00970458984375,-0.009429931640625
-0.22073364257812833,0.015777587890626388,0.12583923339844344,-0.007751464843746905,0.0070190429687503365,-0.006744384765626457
-0.47637939453125,-0.00799560546875,-0.2591552734375,-0.107147216796875,0.003753662109375,0.060882568359375
-0.2234344482421814,0.1511230468750058,0.027175903320282524,0.02882385253905065,0.009918212890624112,0.031158447265624355
-0.076019287109375,0.005523681640625,-0.242767333984375,-0.110870361328125,-0.001800537109375,0.05487060546875
-0.21269226074219275,0.0658111572265663,-0.017059326171878084,-0.08126831054687257,-0.00866699218750078,0.05921936035155985
-0.1382141113281263,0.30389404296874645,0.1730651855468867,0.007263183593754944,-0.0014038085937474467,0.001739501953123146
-0.22142028808592887,0.0983276367187547,0.01933288574218915,-0.015548706054685134,0.008514404296877064,-0.0027770996093749133
-0.173797607421875,0.106414794921875,-0.1390380859375,-0.035125732421875,0.007171630859375,-0.00311279296875
-0.16206359863281386,0.11891174316405831,0.06723022460937522,0.019256591796875017,-0.0074615478515634185,-0.0017089843749999404

-0.125213623046875,0.035614013671875,0.032684326171875,-0.029266357421875,-0.03173828125,0.032501220703125
-0.246063232421883,0.2826385498047108,0.24447631835939962,-0.02494812011718569,-0.04840087890624939,0.03585815429687494
-0.1961669921875,0.807037353515625,0.5115966796875,0.031829833984375,0.00970458984375,-0.009429931640625
-0.22073364257812833,0.015777587890626388,0.12583923339844344,-0.007751464843746905,0.0070190429687503365,-0.006744384765626457
-0.47637939453125,-0.00799560546875,-0.2591552734375,-0.107147216796875,0.003753662109375,0.060882568359375
-0.2234344482421814,0.1511230468750058,0.027175903320282524,0.02882385253905065,0.009918212890624112,0.031158447265624355
-0.076019287109375,0.005523681640625,-0.242767333984375,-0.110870361328125,-0.001800537109375,0.05487060546875
-0.21269226074219275,0.0658111572265663,-0.017059326171878084,-0.08126831054687257,-0.00866699218750078,0.05921936035155985
-0.1382141113281263,0.30389404296874645,0.1730651855468867,0.007263183593754944,-0.0014038085937474467,0.001739501953123146
-0.22142028808592887,0.0983276367187547,0.01933288574218915,-0.015548706054685134,0.008514404296877064,-0.0027770996093749133
-0.173797607421875,0.106414794921875,-0.1390380859375,-0.035125732421875,0.007171630859375,-0.00311279296875
-0.16206359863281386,0.11891174316405831,0.06723022460937522,0.019256591796875017,-0.0074615478515634185,-0.0017089843749999404
-0.150146484375,0.165313720703125,-0.04150390625,0.000335693359375,-0.013031005859375,0.0115966796875
-0.2158966064453131,0.09516906738281197,0.024627685546873872,-0.006698608398437367,-0.009063720703124663,0.012725830078125097
-0.240814208984375,0.0745849609375,0.03692626953125,-0.011688232421875,-0.002044677734375,0.02203369140625
-0.19175720214843794,0.1397552490234375,0.011566162109375114,-0.019073486328124972,0.00010681152343737814,0.021408081054687396
-0.13787841796875,0.287628173828125,0.01483154296875,-0.00372314453125,-0.005889892578125,0.00640869140625
-0.2645874023437543,0.23699951171875555,0.06697082519532013,0.008499145507812892,0.0009613037109384289,-0.011856079101563614
-0.23461914062499184,0.24667358398437436,0.03948974609376553,0.01788330078125054,0.025115966796876034,-0.02435302734375216
-0.2524871826171854,0.21343994140624653,0.0783538818359547,0.033554077148437826,0.0485839843749977,-0.051452636718748744

-0.1382141113281263,0.30389404296874645,0.1730651855468867,0.007263183593754944,-0.0014038085937474467,0.001739501953123146
-0.22142028808592887,0.0983276367187547,0.01933288574218915,-0.015548706054685134,0.008514404296877064,-0.0027770996093749133
-0.173797607421875,0.106414794921875,-0.1390380859375,-0.035125732421875,0.007171630859375,-0.00311279296875
-0.16206359863281386,0.11891174316405831,0.06723022460937522,0.019256591796875017,-0.0074615478515634185,-0.0017089843749999404
-0.150146484375,0.165313720703125,-0.04150390625,0.000335693359375,-0.013031005859375,0.0115966796875
-0.2158966064453131,0.09516906738281197,0.024627685546873872,-0.006698608398437367,-0.009063720703124663,0.012725830078125097
-0.240814208984375,0.0745849609375,0.03692626953125,-0.011688232421875,-0.002044677734375,0.02203369140625
-0.19175720214843794,0.1397552490234375,0.011566162109375114,-0.019073486328124972,0.00010681152343737814,0.021408081054687396
-0.13787841796875,0.287628173828125,0.01483154296875,-0.00372314453125,-0.005889892578125,0.00640869140625
-0.2645874023437543,0.23699951171875555,0.06697082519532013,0.008499145507812892,0.0009613037109384289,-0.011856079101563614
-0.23461914062499184,0.24667358398437436,0.03948974609376553,0.01788330078125054,0.025115966796876034,-0.02435302734375216
-0.2524871826171854,0.21343994140624653,0.0783538818359547,0.033554077148437826,0.0485839843749977,-0.051452636718748744
-0.281463623046875,0.16729736328125,-0.106414794921875,0.02423095703125,0.070709228515625,-0.066864013671875
-0.48652648925780406,0.09934997558593955,0.09458923339844875,-0.042449951171879885,0.06196594238281368,-0.009796142578124247
-0.278076171875,0.2479248046875,-0.03009033203125,-0.003692626953125,0.00628662109375,-0.037261962890625
-0.1828308105468756,0.09272766113281485,-0.030807495117185172,0.060958862304687604,0.008316040039061716,-0.05250549316406268
-0.086669921875,0.0255126953125,-0.020660400390625,0.048370361328125,-0.014251708984375,-0.0286865234375
-0.08607482910156326,0.01135253906249949,0.0018920898437505638,0.036834716796874695,-0.019317626953125114,-0.012939453124999572
-0.11431884765625,-0.010498046875,0.008270263671875,0.02508544921875,-0.01953125,-0.002227783203125
-0.17434692382813455,0.14015197753908548,0.0929718017578241,-0.017684936523437833,-0.039474487304690595,0.029556274414063388

-0.13787841796875,0.287628173828125,0.01483154296875,-0.00372314453125,-0.005889892578125,0.00640869140625
-0.2645874023437543,0.23699951171875555,0.06697082519532013,0.008499145507812892,0.0009613037109384289,-0.011856079101563614
-0.23461914062499184,0.24667358398437436,0.03948974609376553,0.01788330078125054,0.025115966796876034,-0.02435302734375216
-0.2524871826171854,0.21343994140624653,0.0783538818359547,0.033554077148437826,0.0485839843749977,-0.051452636718748744
-0.281463623046875,0.16729736328125,-0.106414794921875,0.02423095703125,0.070709228515625,-0.066864013671875
-0.48652648925780406,0.09934997558593955,0.09458923339844875,-0.042449951171879885,0.06196594238281368,-0.009796142578124247
-0.278076171875,0.2479248046875,-0.03009033203125,-0.003692626953125,0.00628662109375,-0.037261962890625
-0.1828308105468756,0.09272766113281485,-0.030807495117185172,0.060958862304687604,0.008316040039061716,-0.05250549316406268
-0.086669921875,0.0255126953125,-0.020660400390625,0.048370361328125,-0.014251708984375,-0.0286865234375
-0.08607482910156326,0.01135253906249949,0.0018920898437505638,0.036834716796874695,-0.019317626953125114,-0.012939453124999572
-0.11431884765625,-0.010498046875,0.008270263671875,0.02508544921875,-0.01953125,-0.002227783203125
-0.17434692382813455,0.14015197753908548,0.0929718017578241,-0.017684936523437833,-0.039474487304690595,0.029556274414063388
-0.18820190429686107,0.5284118652343517,0.5460205078124517,0.009490966796874296,0.009948730468750933,0.007812499999997322
-0.2238616943359293,0.2146911621093931,0.1937255859375167,-0.01618957519530967,0.010940551757813754,-0.004119873046876962
-0.551116943359375,-0.012298583984375,-0.19244384765625,-0.11431884765625,0.010955810546875,0.064117431640625
-0.3296661376952956,0.12936401367187383,0.22288513183591002,0.03967285156250287,0.020935058593751756,0.05375671386718595
-0.134765625,0.1419677734375,-0.174346923828125,-0.063812255859375,0.00811767578125,0.03424072265625
-0.12692260742188194,0.03718566894532477,-0.22285461425779848,-0.12454223632812642,0.0008392333984371557,0.06986999511718864
-0.262451171875,0.15826416015625,0.048065185546875,-0.0440673828125,-0.012359619140625,0.04571533203125
-0.1431121826171782,0.2526550292968919,0.04757690429689265,-0.020919799804689162,0.00485229492187571,0.016113281250000357

-0.086669921875,0.0255126953125,-0.020660400390625,0.048370361328125,-0.014251708984375,-0.0286865234375
-0.08607482910156326,0.01135253906249949,0.0018920898437505638,0.036834716796874695,-0.019317626953125114,-0.012939453124999572
-0.11431884765625,-0.010498046875,0.008270263671875,0.02508544921875,-0.01953125,-0.002227783203125
-0.17434692382813455,0.14015197753908548,0.0929718017578241,-0.017684936523437833,-0.039474487304690595,0.029556274414063388
-0.18820190429686107,0.5284118652343517,0.5460205078124517,0.009490966796874296,0.009948730468750933,0.007812499999997322
-0.2238616943359293,0.2146911621093931,0.1937255859375167,-0.01618957519530967,0.010940551757813754,-0.004119873046876962
-0.551116943359375,-0.012298583984375,-0.19244384765625,-0.11431884765625,0.010955810546875,0.064117431640625
-0.3296661376952956,0.12936401367187383,0.22288513183591002,0.03967285156250287,0.020935058593751756,0.05375671386718595
-0.134765625,0.1419677734375,-0.174346923828125,-0.063812255859375,0.00811767578125,0.03424072265625
-0.12692260742188194,0.03718566894532477,-0.22285461425779848,-0.12454223632812642,0.0008392333984371557,0.06986999511718864
-0.262451171875,0.15826416015625,0.048065185546875,-0.0440673828125,-0.012359619140625,0.04571533203125
-0.1431121826171782,0.2526550292968919,0.04757690429689265,-0.020919799804689162,0.00485229492187571,0.016113281250000357
-0.375152587890625,0.029327392578125,-0.028106689453125,9.1552734375e-05,-0.007720947265625,0.00347900390625
-0.1641693115234334,0.10281372070313269,-0.06300354003906156,-0.006027221679681956,0.00459289550781419,-0.0030059814453124323
-0.19647216796875067,0.12768554687499714,0.033142089843750014,-0.005493164062500217,-0.015167236328124051,0.00964355468749999
-0.20730590820312528,0.08430480957031217,0.04339599609374831,-0.010757446289061688,-0.005661010742187855,0.013336181640624842
-0.190765380859375,0.14862060546875,0.021087646484375,-0.01617431640625,0.006683349609375,0.01263427734375
-0.14715576171874392,0.2870025634765684,-0.04223632812499372,-0.008010864257813582,-0.0019226074218757806,0.011276245117187682
-0.181427001953125,0.2386474609375,0.04937744140625,0.00189208984375,6.103515625e-05,-0.0048828125
-0.29960632324218617,0.2218322753906263,0.06687927246094502,0.007385253906248704,-0.011688232421875487,-0.017669677734374858

-0.134765625,0.1419677734375,-0.174346923828125,-0.063812255859375,0.00811767578125,0.03424072265625
-0.12692260742188194,0.03718566894532477,-0.22285461425779848,-0.12454223632812642,0.0008392333984371557,0.06986999511718864
-0.262451171875,0.15826416015625,0.048065185546875,-0.0440673828125,-0.012359619140625,0.04571533203125
-0.1431121826171782,0.2526550292968919,0.04757690429689265,-0.020919799804689162,0.00485229492187571,0.016113281250000357
-0.375152587890625,0.029327392578125,-0.028106689453125,9.1552734375e-05,-0.007720947265625,0.00347900390625
-0.1641693115234334,0.10281372070313269,-0.06300354003906156,-0.006027221679681956,0.00459289550781419,-0.0030059814453124323
-0.19647216796875067,0.12768554687499714,0.033142089843750014,-0.005493164062500217,-0.015167236328124051,0.00964355468749999
-0.20730590820312528,0.08430480957031217,0.04339599609374831,-0.010757446289061688,-0.005661010742187855,0.013336181640624842
-0.190765380859375,0.14862060546875,0.021087646484375,-0.01617431640625,0.006683349609375,0.01263427734375
-0.14715576171874392,0.2870025634765684,-0.04223632812499372,-0.008010864257813582,-0.0019226074218757806,0.011276245117187682
-0.181427001953125,0.2386474609375,0.04937744140625,0.00189208984375,6.103515625e-05,-0.0048828125
-0.29960632324218617,0.2218322753906263,0.06687927246094502,0.007385253906248704,-0.011688232421875487,-0.017669677734374858
-0.18536376953125,0.2451171875,0.130157470703125,0.03106689453125,0.024993896484375,-0.03643798828125
-0.27671813964844144,0.19824218749999725,-0.05387878417969187,0.02188110351562481,0.06617736816406272,-0.0581665039062504
-0.317657470703125,0.147613525390625,-0.071441650390625,0.009429931640625,0.04449462890625,-0.038421630859375
-0.37835693359374,0.15223693847656972,0.11497497558592573,-0.0610656738281269,0.07366943359375039,-0.015548706054687236
-0.10308837890626582,0.17623901367186093,0.08670043945310897,0.12380981445311853,-0.0012512207031220564,-0.08889770507812127
-0.15527343750000042,0.09159851074218078,-0.02484130859375334,0.057937622070313874,0.012359619140625541,-0.05282592773437557
-0.099029541015625,0.00982666015625,-0.032562255859375,0.065155029296875,-0.018585205078125,-0.03668212890625
-0.08998107910156301,-0.011810302734375206,-0.004684448242186587,0.04040527343749928,-0.020309448242187656,-0.017639160156249313

-0.190765380859375,0.14862060546875,0.021087646484375,-0.01617431640625,0.006683349609375,0.01263427734375
