acc.x,acc.y,acc.z,gyro.x,gyro.y,gyro.z
-0.0521240234375,0.058990478515625,0.17474365234375,-0.004058837890625,0.00067138671875,-6.103515625e-05
-0.0435638427734375,0.0655975341796875,0.205596923828125,-0.0058135986328125,-0.0016021728515625,0.002410888671875
-0.046844482421875,0.10028076171875,0.19683837890625,-0.01312255859375,-0.00164794921875,0.005584716796875
-0.065216064453125,0.0936126708984375,0.2137908935546875,-0.0113677978515625,-0.0026092529296875,0.0058135986328125
-0.044464111328125,0.10516357421875,0.224212646484375,-0.009674072265625,-0.00238037109375,0.0054931640625
-0.0503997802734375,0.0941162109375,0.2157440185546875,-0.01104736328125,-0.001739501953125,0.005157470703125
-0.047576904296874965,0.08694458007812507,0.22268676757812503,-0.006835937500000004,-0.0033874511718750004,0.00537109375
-0.03373718261718751,0.1167755126953125,0.22198486328125,-0.012145996093750003,-0.002197265624999999,0.005004882812499999
-0.051727294921875,0.088653564453125,0.20263671875,-0.011260986328125,-0.0035400390625,0.003753662109375
-0.04290771484375,0.08074951171875,0.2032012939453125,-0.010498046875,-0.00567626953125,0.00408935546875
-0.05126953125,0.085113525390625,0.214630126953125,-0.014495849609375,-0.00592041015625,0.005279541015625
-0.0596160888671875,0.093780517578125,0.249298095703125,-0.014373779296875,-0.004150390625,0.0066986083984375
-0.09759521484374999,0.15438842773437503,0.3084411621093752,-0.008605957031249944,0.00048828124999999984,0.006591796875000001
-0.0249786376953125,0.071136474609375,0.294921875,-0.007965087890625,0.0081024169921875,0.0187225341796875
-0.10821533203125,0.048797607421875,0.1719970703125,-0.02020263671875,-0.00616455078125,0.026519775390625
-0.1344146728515625,0.231353759765625,0.2254638671875,-0.044769287109375,-0.0249481201171875,0.0348968505859375
-0.178192138671875,0.22833251953125,0.19830322265625,-0.00579833984375,-0.036041259765625,0.01507568359375
-0.16247558593750006,0.02993774414062496,0.12428283691406238,-0.021026611328124997,-0.027160644531249993,0.011123657226562514
-0.1829833984375,0.0804443359375,0.083251953125,-0.032196044921875,-0.0218505859375,0.01983642578125
-0.13880920410156242,0.22338867187500014,0.09898376464843757,-0.04690551757812499,-0.01057434082031249,0.019699096679687483

-0.051727294921875,0.088653564453125,0.20263671875,-0.011260986328125,-0.0035400390625,0.003753662109375
-0.04290771484375,0.08074951171875,0.2032012939453125,-0.010498046875,-0.00567626953125,0.00408935546875
-0.05126953125,0.085113525390625,0.214630126953125,-0.014495849609375,-0.00592041015625,0.005279541015625
-0.0596160888671875,0.093780517578125,0.249298095703125,-0.014373779296875,-0.004150390625,0.0066986083984375
-0.09759521484374999,0.15438842773437503,0.3084411621093752,-0.008605957031249944,0.00048828124999999984,0.006591796875000001
-0.0249786376953125,0.071136474609375,0.294921875,-0.007965087890625,0.0081024169921875,0.0187225341796875
-0.10821533203125,0.048797607421875,0.1719970703125,-0.02020263671875,-0.00616455078125,0.026519775390625
-0.1344146728515625,0.231353759765625,0.2254638671875,-0.044769287109375,-0.0249481201171875,0.0348968505859375
-0.178192138671875,0.22833251953125,0.19830322265625,-0.00579833984375,-0.036041259765625,0.01507568359375
-0.16247558593750006,0.02993774414062496,0.12428283691406238,-0.021026611328124997,-0.027160644531249993,0.011123657226562514
-0.1829833984375,0.0804443359375,0.083251953125,-0.032196044921875,-0.0218505859375,0.01983642578125
-0.13880920410156242,0.22338867187500014,0.09898376464843757,-0.04690551757812499,-0.01057434082031249,0.019699096679687483
-0.092559814453125,0.263580322265625,0.13568115234375,-0.031280517578125,-0.014129638671875,0.009490966796875
-0.085479736328125,0.2426300048828125,0.1179656982421875,-0.023193359375,-0.02178955078125,0.002166748046875
-0.10382080078125,0.17840576171875,0.11029052734375,-0.00616455078125,-0.037261962890625,0.00360107421875
-0.14199829101562506,0.13661193847656244,0.09757995605468746,-0.003067016601562506,-0.038482666015624986,0.009048461914062514
-0.2062988281249999,0.09475708007812536,0.07412719726562494,-0.012237548828125057,-0.020172119140624986,0.01824951171875
-0.177276611328125,0.1569976806640625,0.074310302734375,-0.0157318115234375,-0.0266265869140625,0.0094451904296875
-0.157501220703125,0.150665283203125,0.09210205078125,-0.01348876953125,-0.03314208984375,0.002349853515625
-0.14129638671875,0.172332763671875,0.1037445068359375,-0.0158233642578125,-0.0285797119140625,-0.00164794921875

-0.178192138671875,0.22833251953125,0.19830322265625,-0.00579833984375,-0.036041259765625,0.01507568359375
-0.16247558593750006,0.02993774414062496,0.12428283691406238,-0.021026611328124997,-0.027160644531249993,0.011123657226562514
-0.1829833984375,0.0804443359375,0.083251953125,-0.032196044921875,-0.0218505859375,0.01983642578125
-0.13880920410156242,0.22338867187500014,0.09898376464843757,-0.04690551757812499,-0.01057434082031249,0.019699096679687483
-0.092559814453125,0.263580322265625,0.13568115234375,-0.031280517578125,-0.014129638671875,0.009490966796875
-0.085479736328125,0.2426300048828125,0.1179656982421875,-0.023193359375,-0.02178955078125,0.002166748046875
-0.10382080078125,0.17840576171875,0.11029052734375,-0.00616455078125,-0.037261962890625,0.00360107421875
-0.14199829101562506,0.13661193847656244,0.09757995605468746,-0.003067016601562506,-0.038482666015624986,0.009048461914062514
-0.2062988281249999,0.09475708007812536,0.07412719726562494,-0.012237548828125057,-0.020172119140624986,0.01824951171875
-0.177276611328125,0.1569976806640625,0.074310302734375,-0.0157318115234375,-0.0266265869140625,0.0094451904296875
-0.157501220703125,0.150665283203125,0.09210205078125,-0.01348876953125,-0.03314208984375,0.002349853515625
-0.14129638671875,0.172332763671875,0.1037445068359375,-0.0158233642578125,-0.0285797119140625,-0.00164794921875
-0.1572265625,0.128204345703125,0.093475341796875,-0.010162353515625,-0.023040771484375,-0.006134033203125
-0.1499481201171876,0.11007690429687508,0.1180877685546876,-0.01315307617187502,-0.02352905273437498,-0.006042480468749988
-0.16375732421875,0.11041259765625,0.112579345703125,-0.015594482421875,-0.01617431640625,-0.00537109375
-0.165130615234375,0.12750244140625,0.1119232177734375,-0.0189971923828125,-0.0076904296875,-0.000762939453125
-0.1492919921875,0.186614990234375,0.0828857421875,-0.02105712890625,-0.002349853515625,0.005889892578125
-0.16058349609375,0.22552490234375,0.0247039794921875,-0.0204925537109375,0.0013580322265625,0.005828857421875
-0.2182006835937502,0.18072509765624986,0.04202270507812525,-0.012969970703124977,-0.004302978515625016,0.0019836425781250056
-0.2343597412109375,0.204132080078125,0.07098388671875,-0.011993408203125,-0.0060882568359375,0.007568359375

-0.2062988281249999,0.09475708007812536,0.07412719726562494,-0.012237548828125057,-0.020172119140624986,0.01824951171875
-0.177276611328125,0.1569976806640625,0.074310302734375,-0.0157318115234375,-0.0266265869140625,0.0094451904296875
-0.157501220703125,0.150665283203125,0.09210205078125,-0.01348876953125,-0.03314208984375,0.002349853515625
-0.14129638671875,0.172332763671875,0.1037445068359375,-0.0158233642578125,-0.0285797119140625,-0.00164794921875
-0.1572265625,0.128204345703125,0.093475341796875,-0.010162353515625,-0.023040771484375,-0.006134033203125
-0.1499481201171876,0.11007690429687508,0.1180877685546876,-0.01315307617187502,-0.02352905273437498,-0.006042480468749988
-0.16375732421875,0.11041259765625,0.112579345703125,-0.015594482421875,-0.01617431640625,-0.00537109375
-0.165130615234375,0.12750244140625,0.1119232177734375,-0.0189971923828125,-0.0076904296875,-0.000762939453125
-0.1492919921875,0.186614990234375,0.0828857421875,-0.02105712890625,-0.002349853515625,0.005889892578125
-0.16058349609375,0.22552490234375,0.0247039794921875,-0.0204925537109375,0.0013580322265625,0.005828857421875
-0.2182006835937502,0.18072509765624986,0.04202270507812525,-0.012969970703124977,-0.004302978515625016,0.0019836425781250056
-0.2343597412109375,0.204132080078125,0.07098388671875,-0.011993408203125,-0.0060882568359375,0.007568359375
-0.22808837890625,0.281280517578125,0.055816650390625,-0.0186767578125,-0.00860595703125,0.014404296875
-0.264404296875,0.3338470458984375,0.0924072265625,-0.0146331787109375,-0.0111846923828125,0.012939453125
-0.21173095703125,0.382904052734375,0.0330810546875,0.003173828125,9.1552734375e-05,0.011627197265625
-0.3320617675781248,0.1420440673828122,0.19921875000000033,0.05580139160156265,0.011672973632812583,0.0011444091796875113
-0.209197998046875,0.17303466796875,0.25665283203125,0.07269287109375,0.05230712890625,0.002105712890625
-0.11186218261718701,0.2521514892578129,0.18078613281249947,0.04090881347656244,0.10252380371093754,-0.003723144531250049
-0.088165283203125,0.319061279296875,-0.009552001953125,0.0374755859375,0.08245849609375,-0.023223876953125
-0.22825622558593753,0.30659484863281294,-0.060531616210937715,0.07807922363281242,0.027114868164062583,-0.049575805664062465

-0.1492919921875,0.186614990234375,0.0828857421875,-0.02105712890625,-0.002349853515625,0.005889892578125
-0.16058349609375,0.22552490234375,0.0247039794921875,-0.0204925537109375,0.0013580322265625,0.005828857421875
-0.2182006835937502,0.18072509765624986,0.04202270507812525,-0.012969970703124977,-0.004302978515625016,0.0019836425781250056
-0.2343597412109375,0.204132080078125,0.07098388671875,-0.011993408203125,-0.0060882568359375,0.007568359375
-0.22808837890625,0.281280517578125,0.055816650390625,-0.0186767578125,-0.00860595703125,0.014404296875
-0.264404296875,0.3338470458984375,0.0924072265625,-0.0146331787109375,-0.0111846923828125,0.012939453125
-0.21173095703125,0.382904052734375,0.0330810546875,0.003173828125,9.1552734375e-05,0.011627197265625
-0.3320617675781248,0.1420440673828122,0.19921875000000033,0.05580139160156265,0.011672973632812583,0.0011444091796875113
-0.209197998046875,0.17303466796875,0.25665283203125,0.07269287109375,0.05230712890625,0.002105712890625
-0.11186218261718701,0.2521514892578129,0.18078613281249947,0.04090881347656244,0.10252380371093754,-0.003723144531250049
-0.088165283203125,0.319061279296875,-0.009552001953125,0.0374755859375,0.08245849609375,-0.023223876953125
-0.22825622558593753,0.30659484863281294,-0.060531616210937715,0.07807922363281242,0.027114868164062583,-0.049575805664062465
-0.2039794921875,0.223846435546875,-0.0164794921875,0.081787109375,0.00732421875,-0.0618896484375
-0.2183380126953124,0.2284851074218746,0.05508422851562432,0.07608032226562499,0.004867553710937542,-0.06982421874999994
-0.2125244140625,0.234405517578125,0.21148681640625,0.08941650390625,0.016693115234375,-0.095855712890625
-0.12539672851562492,0.17810058593749986,0.1371002197265624,0.07368469238281238,0.02922058105468757,-0.09977722167968746
-0.1459350585937489,0.1148681640624999,0.1364440917968745,0.05789184570312498,0.043731689453124806,-0.08029174804687508
-0.09460449218749997,0.09532165527343733,0.09970092773437492,0.057556152343749986,0.029235839843749962,-0.08699035644531251
-0.060028076171875,0.072601318359375,0.074554443359375,0.049591064453125,0.021697998046875,-0.081939697265625
-0.036392211914062465,0.06552124023437496,0.055603027343750056,0.06390380859375006,0.007934570312499969,-0.06616210937499994

-0.209197998046875,0.17303466796875,0.25665283203125,0.07269287109375,0.05230712890625,0.002105712890625
-0.11186218261718701,0.2521514892578129,0.18078613281249947,0.04090881347656244,0.10252380371093754,-0.003723144531250049
-0.088165283203125,0.319061279296875,-0.009552001953125,0.0374755859375,0.08245849609375,-0.023223876953125
-0.22825622558593753,0.30659484863281294,-0.060531616210937715,0.07807922363281242,0.027114868164062583,-0.049575805664062465
-0.2039794921875,0.223846435546875,-0.0164794921875,0.081787109375,0.00732421875,-0.0618896484375
-0.2183380126953124,0.2284851074218746,0.05508422851562432,0.07608032226562499,0.004867553710937542,-0.06982421874999994
-0.2125244140625,0.234405517578125,0.21148681640625,0.08941650390625,0.016693115234375,-0.095855712890625
-0.12539672851562492,0.17810058593749986,0.1371002197265624,0.07368469238281238,0.02922058105468757,-0.09977722167968746
-0.1459350585937489,0.1148681640624999,0.1364440917968745,0.05789184570312498,0.043731689453124806,-0.08029174804687508
-0.09460449218749997,0.09532165527343733,0.09970092773437492,0.057556152343749986,0.029235839843749962,-0.08699035644531251
-0.060028076171875,0.072601318359375,0.074554443359375,0.049591064453125,0.021697998046875,-0.081939697265625
-0.036392211914062465,0.06552124023437496,0.055603027343750056,0.06390380859375006,0.007934570312499969,-0.06616210937499994
-0.043609619140625,0.03753662109375,0.075653076171875,0.06451416015625,0.001708984375,-0.055633544921875
-0.03207397460937495,0.011260986328124955,0.0791168212890624,0.05204772949218743,-0.004440307617187531,-0.048248291015624965
-0.048309326171875,0.02227783203125,0.04229736328125,0.033111572265625,-0.00909423828125,-0.03961181640625
-0.07508850097656258,0.024261474609374917,0.06069946289062479,0.006469726562500078,-0.012619018554687486,-0.03149414062500003
-0.054351806640625,0.01068115234375,0.17425537109375,-0.02490234375,-0.022308349609375,-0.013427734375
-0.002105712890624962,0.12527465820312553,0.25328063964843733,-0.035461425781250076,-0.02873229980468757,-0.004531860351562397
-0.05212402343750037,0.21255493164062483,0.17160034179687492,-0.04931640624999982,-0.03543090820312522,0.0045776367187499245
-0.09750366210937483,0.14820861816406206,0.19334411621093783,-0.030578613281249948,-0.05752563476562504,0.0003204345703125207

-0.1459350585937489,0.1148681640624999,0.1364440917968745,0.05789184570312498,0.043731689453124806,-0.08029174804687508
-0.09460449218749997,0.09532165527343733,0.09970092773437492,0.057556152343749986,0.029235839843749962,-0.08699035644531251
-0.060028076171875,0.072601318359375,0.074554443359375,0.049591064453125,0.021697998046875,-0.081939697265625
-0.036392211914062465,0.06552124023437496,0.055603027343750056,0.06390380859375006,0.007934570312499969,-0.06616210937499994
-0.043609619140625,0.03753662109375,0.075653076171875,0.06451416015625,0.001708984375,-0.055633544921875
-0.03207397460937495,0.011260986328124955,0.0791168212890624,0.05204772949218743,-0.004440307617187531,-0.048248291015624965
-0.048309326171875,0.02227783203125,0.04229736328125,0.033111572265625,-0.00909423828125,-0.03961181640625
-0.07508850097656258,0.024261474609374917,0.06069946289062479,0.006469726562500078,-0.012619018554687486,-0.03149414062500003
-0.054351806640625,0.01068115234375,0.17425537109375,-0.02490234375,-0.022308349609375,-0.013427734375
-0.002105712890624962,0.12527465820312553,0.25328063964843733,-0.035461425781250076,-0.02873229980468757,-0.004531860351562397
-0.05212402343750037,0.21255493164062483,0.17160034179687492,-0.04931640624999982,-0.03543090820312522,0.0045776367187499245
-0.09750366210937483,0.14820861816406206,0.19334411621093783,-0.030578613281249948,-0.05752563476562504,0.0003204345703125207
-0.149810791015625,0.20703125,0.29345703125,-0.024566650390625,-0.05224609375,0.0048828125
-0.2701873779296875,0.3158874511718741,0.3045959472656245,-0.02096557617187503,-0.019470214843749962,0.007659912109375007
-0.19140625,0.034515380859375,0.18939208984375,-0.0501708984375,-0.01690673828125,0.010589599609375
-0.1274108886718745,-0.02932739257812498,0.04666137695312473,-0.06135559082031245,-0.02343750000000003,0.019210815429687608
-0.10601806640625,0.45587158203125,0.049407958984375,-0.027618408203125,-0.045806884765625,0.01776123046875
-0.2370605468749999,0.3520507812500015,0.09403991699218744,-0.013076782226562507,-0.0483551025390626,0.0011901855468750427
-0.22503662109375,0.117584228515625,0.144622802734375,0.00592041015625,-0.034637451171875,0.011962890625
-0.1646575927734369,-0.034759521484374487,0.10981750488281193,-0.005706787109375293,-0.038757324218749986,0.029968261718750184

-0.054351806640625,0.01068115234375,0.17425537109375,-0.02490234375,-0.022308349609375,-0.013427734375
-0.002105712890624962,0.12527465820312553,0.25328063964843733,-0.035461425781250076,-0.02873229980468757,-0.004531860351562397
-0.05212402343750037,0.21255493164062483,0.17160034179687492,-0.04931640624999982,-0.03543090820312522,0.0045776367187499245
-0.09750366210937483,0.14820861816406206,0.19334411621093783,-0.030578613281249948,-0.05752563476562504,0.0003204345703125207
-0.149810791015625,0.20703125,0.29345703125,-0.024566650390625,-0.05224609375,0.0048828125
-0.2701873779296875,0.3158874511718741,0.3045959472656245,-0.02096557617187503,-0.019470214843749962,0.007659912109375007
-0.19140625,0.034515380859375,0.18939208984375,-0.0501708984375,-0.01690673828125,0.010589599609375
-0.1274108886718745,-0.02932739257812498,0.04666137695312473,-0.06135559082031245,-0.02343750000000003,0.019210815429687608
-0.10601806640625,0.45587158203125,0.049407958984375,-0.027618408203125,-0.045806884765625,0.01776123046875
-0.2370605468749999,0.3520507812500015,0.09403991699218744,-0.013076782226562507,-0.0483551025390626,0.0011901855468750427
-0.22503662109375,0.117584228515625,0.144622802734375,0.00592041015625,-0.034637451171875,0.011962890625
-0.1646575927734369,-0.034759521484374487,0.10981750488281193,-0.005706787109375293,-0.038757324218749986,0.029968261718750184
-0.0963134765624999,0.13949584960937594,0.043426513671874875,-0.04733276367187497,-0.026275634765624934,0.04098510742187495
-0.11312866210937512,0.2578125000000008,0.04049682617187516,-0.04472351074218749,-0.01406860351562497,0.02781677246093739
-0.11627197265625,0.265289306640625,0.052001953125,-0.02178955078125,-0.019561767578125,0.01019287109375
-0.1048583984374999,0.15396118164062475,0.08050537109375004,0.00325012207031263,-0.03721618652343761,-0.002288818359374979
-0.173583984375,0.180328369140625,0.075042724609375,-0.02032470703125,-0.00421142578125,-0.00244140625
-0.16700744628906264,0.20826721191406242,0.0616455078125,-0.018402099609375,-0.0032348632812499905,-0.006317138671875008
-0.191436767578125,0.1727294921875,0.05859375,-0.018310546875,-0.00299072265625,-0.000152587890625
-0.17376708984375017,0.16175842285156236,0.07769775390625004,-0.01409912109375002,-0.001770019531250023,-0.003997802734375034

-0.10601806640625,0.45587158203125,0.049407958984375,-0.027618408203125,-0.045806884765625,0.01776123046875
-0.2370605468749999,0.3520507812500015,0.09403991699218744,-0.013076782226562507,-0.0483551025390626,0.0011901855468750427
-0.22503662109375,0.117584228515625,0.144622802734375,0.00592041015625,-0.034637451171875,0.011962890625
-0.1646575927734369,-0.034759521484374487,0.10981750488281193,-0.005706787109375293,-0.038757324218749986,0.029968261718750184
-0.0963134765624999,0.13949584960937594,0.043426513671874875,-0.04733276367187497,-0.026275634765624934,0.04098510742187495
-0.11312866210937512,0.2578125000000008,0.04049682617187516,-0.04472351074218749,-0.01406860351562497,0.02781677246093739
-0.11627197265625,0.265289306640625,0.052001953125,-0.02178955078125,-0.019561767578125,0.01019287109375
-0.1048583984374999,0.15396118164062475,0.08050537109375004,0.00325012207031263,-0.03721618652343761,-0.002288818359374979
-0.173583984375,0.180328369140625,0.075042724609375,-0.02032470703125,-0.00421142578125,-0.00244140625
-0.16700744628906264,0.20826721191406242,0.0616455078125,-0.018402099609375,-0.0032348632812499905,-0.006317138671875008
-0.191436767578125,0.1727294921875,0.05859375,-0.018310546875,-0.00299072265625,-0.000152587890625
-0.17376708984375017,0.16175842285156236,0.07769775390625004,-0.01409912109375002,-0.001770019531250023,-0.003997802734375034
-0.13128662109375,0.223297119140625,0.029876708984375,-0.01446533203125,-0.00445556640625,0.0008544921875
-0.15066528320312497,0.2331390380859374,0.041152954101562604,-0.009582519531249986,-0.013916015625000014,0.001037597656249998
-0.16641235351562583,0.21597290039062464,0.04019165039062491,-0.010955810546875016,-0.014465332031249922,0.0020141601562500195
-0.28260803222656294,0.21296691894531267,0.04959106445312509,-0.013000488281250017,-0.008834838867187488,0.0031433105468750035
-0.2940673828125,0.281951904296875,0.06781005859375,0.001800537109375,0.006927490234375,0.003448486328125
-0.36799621582031194,0.1862030029296892,0.12467956542968672,0.023101806640625038,0.031890869140624827,-0.0022125244140624805
-0.364105224609374,0.0864868164062506,0.1773376464843751,0.021453857421875135,0.05215454101562534,-0.0030517578125000625
-0.3128051757812498,0.1178283691406248,0.16099548339843722,0.028442382812500038,0.08106994628906294,-0.004302978515624904

-0.173583984375,0.180328369140625,0.075042724609375,-0.02032470703125,-0.00421142578125,-0.00244140625
-0.16700744628906264,0.20826721191406242,0.0616455078125,-0.018402099609375,-0.0032348632812499905,-0.006317138671875008
-0.191436767578125,0.1727294921875,0.05859375,-0.018310546875,-0.00299072265625,-0.000152587890625
-0.17376708984375017,0.16175842285156236,0.07769775390625004,-0.01409912109375002,-0.001770019531250023,-0.003997802734375034
-0.13128662109375,0.223297119140625,0.029876708984375,-0.01446533203125,-0.00445556640625,0.0008544921875
-0.15066528320312497,0.2331390380859374,0.041152954101562604,-0.009582519531249986,-0.013916015625000014,0.001037597656249998
-0.16641235351562583,0.21597290039062464,0.04019165039062491,-0.010955810546875016,-0.014465332031249922,0.0020141601562500195
-0.28260803222656294,0.21296691894531267,0.04959106445312509,-0.013000488281250017,-0.008834838867187488,0.0031433105468750035
-0.2940673828125,0.281951904296875,0.06781005859375,0.001800537109375,0.006927490234375,0.003448486328125
-0.36799621582031194,0.1862030029296892,0.12467956542968672,0.023101806640625038,0.031890869140624827,-0.0022125244140624805
-0.364105224609374,0.0864868164062506,0.1773376464843751,0.021453857421875135,0.05215454101562534,-0.0030517578125000625
-0.3128051757812498,0.1178283691406248,0.16099548339843722,0.028442382812500038,0.08106994628906294,-0.004302978515624904
-0.123443603515625,0.256439208984375,0.189208984375,0.016082763671875,0.11248779296875,-0.00091552734375
-0.12762451171875,0.34271240234375,0.1964111328125,0.0102996826171875,0.1059722900390625,-0.0176849365234375
-0.12200927734375,0.392364501953125,-0.044891357421875,0.03070068359375,0.087188720703125,-0.0374755859375
-0.14895629882812533,0.2703399658203109,-0.12802124023437486,0.045776367187500305,0.040695190429687056,-0.06677246093750022
-0.169891357421875,0.0853271484375,-0.067901611328125,0.06317138671875,0.0059814453125,-0.07818603515625
-0.209442138671875,0.0982208251953125,0.193939208984375,0.0717315673828125,0.01031494140625,-0.0712890625
-0.147735595703125,0.03668212890625,0.151275634765625,0.106658935546875,0.046722412109375,-0.055572509765625
-0.025222778320313766,0.04267883300781259,0.06799316406249983,0.0658416748046877,0.051223754882812576,-0.03233337402343758

-0.2940673828125,0.281951904296875,0.06781005859375,0.001800537109375,0.006927490234375,0.003448486328125
-0.36799621582031194,0.1862030029296892,0.12467956542968672,0.023101806640625038,0.031890869140624827,-0.0022125244140624805
-0.364105224609374,0.0864868164062506,0.1773376464843751,0.021453857421875135,0.05215454101562534,-0.0030517578125000625
-0.3128051757812498,0.1178283691406248,0.16099548339843722,0.028442382812500038,0.08106994628906294,-0.004302978515624904
-0.123443603515625,0.256439208984375,0.189208984375,0.016082763671875,0.11248779296875,-0.00091552734375
-0.12762451171875,0.34271240234375,0.1964111328125,0.0102996826171875,0.1059722900390625,-0.0176849365234375
-0.12200927734375,0.392364501953125,-0.044891357421875,0.03070068359375,0.087188720703125,-0.0374755859375
-0.14895629882812533,0.2703399658203109,-0.12802124023437486,0.045776367187500305,0.040695190429687056,-0.06677246093750022
-0.169891357421875,0.0853271484375,-0.067901611328125,0.06317138671875,0.0059814453125,-0.07818603515625
-0.209442138671875,0.0982208251953125,0.193939208984375,0.0717315673828125,0.01031494140625,-0.0712890625
-0.147735595703125,0.03668212890625,0.151275634765625,0.106658935546875,0.046722412109375,-0.055572509765625
-0.025222778320313766,0.04267883300781259,0.06799316406249983,0.0658416748046877,0.051223754882812576,-0.03233337402343758
0.0257568359375,0.04827880859375,0.107147216796875,0.04913330078125,0.038055419921875,-0.029632568359375
-0.011749267578125349,0.052490234374999827,0.09832763671874994,0.05322265625000004,0.024642944335937347,-0.028060913085937392
-0.079559326171875,0.027252197265625,0.09539794921875,0.05206298828125,0.01666259765625,-0.006072998046875
-0.0550994873046875,-0.0165863037109375,0.1738128662109375,0.0179290771484375,0.009857177734375,0.0048675537109375
-0.03799438476562478,0.024658203125000583,0.14196777343750075,-0.02114868164062535,-0.005981445312500068,0.0088500976562501
-0.03153991699218742,0.04498291015625008,0.19915771484375072,-0.03881835937500013,-0.012695312500000102,0.015518188476562562
0.014923095703125,0.0858154296875,0.247894287109375,-0.0584716796875,-0.036102294921875,0.0260009765625
-0.0205230712890625,0.1318511962890625,0.10919189453125,-0.07867431640625,-0.0485382080078125,0.03472900390625

-0.169891357421875,0.0853271484375,-0.067901611328125,0.06317138671875,0.0059814453125,-0.07818603515625
-0.209442138671875,0.0982208251953125,0.193939208984375,0.0717315673828125,0.01031494140625,-0.0712890625
-0.147735595703125,0.03668212890625,0.151275634765625,0.106658935546875,0.046722412109375,-0.055572509765625
-0.025222778320313766,0.04267883300781259,0.06799316406249983,0.0658416748046877,0.051223754882812576,-0.03233337402343758
0.0257568359375,0.04827880859375,0.107147216796875,0.04913330078125,0.038055419921875,-0.029632568359375
-0.011749267578125349,0.052490234374999827,0.09832763671874994,0.05322265625000004,0.024642944335937347,-0.028060913085937392
-0.079559326171875,0.027252197265625,0.09539794921875,0.05206298828125,0.01666259765625,-0.006072998046875
-0.0550994873046875,-0.0165863037109375,0.1738128662109375,0.0179290771484375,0.009857177734375,0.0048675537109375
-0.03799438476562478,0.024658203125000583,0.14196777343750075,-0.02114868164062535,-0.005981445312500068,0.0088500976562501
-0.03153991699218742,0.04498291015625008,0.19915771484375072,-0.03881835937500013,-0.012695312500000102,0.015518188476562562
0.014923095703125,0.0858154296875,0.247894287109375,-0.0584716796875,-0.036102294921875,0.0260009765625
-0.0205230712890625,0.1318511962890625,0.10919189453125,-0.07867431640625,-0.0485382080078125,0.03472900390625
-0.08184814453125,0.0384521484375,0.01336669921875,-0.102142333984375,-0.0592041015625,0.0362548828125
-0.7358398437500118,0.5794067382812627,0.8691558837890645,-0.031005859374998862,-0.05004882812499947,0.030395507812499986
-0.024627685546875,0.37506103515625,0.030242919921875,-0.008514404296875,-0.021575927734375,-0.014892578125
-0.059738159179686126,-0.24665832519530917,0.019317626953122363,-0.03186035156250001,-0.01599121093749988,0.010040283203125541
-0.19757080078125,0.234405517578125,0.0550537109375,-0.048828125,-0.0128173828125,0.047576904296875
-0.21478271484375,0.4163970947265625,0.077423095703125,-0.0406341552734375,-0.015869140625,0.01434326171875
-0.09802246093749994,0.14508056640624836,0.11236572265624868,-0.01916503906249959,-0.03228759765625061,0.007446289062500279
-0.12850952148437514,0.07707214355468726,0.08697509765624988,-0.01861572265625018,-0.04815673828124996,0.017822265625000062

-0.03799438476562478,0.024658203125000583,0.14196777343750075,-0.02114868164062535,-0.005981445312500068,0.0088500976562501
-0.03153991699218742,0.04498291015625008,0.19915771484375072,-0.03881835937500013,-0.012695312500000102,0.015518188476562562
0.014923095703125,0.0858154296875,0.247894287109375,-0.0584716796875,-0.036102294921875,0.0260009765625
-0.0205230712890625,0.1318511962890625,0.10919189453125,-0.07867431640625,-0.0485382080078125,0.03472900390625
-0.08184814453125,0.0384521484375,0.01336669921875,-0.102142333984375,-0.0592041015625,0.0362548828125
-0.7358398437500118,0.5794067382812627,0.8691558837890645,-0.031005859374998862,-0.05004882812499947,0.030395507812499986
-0.024627685546875,0.37506103515625,0.030242919921875,-0.008514404296875,-0.021575927734375,-0.014892578125
-0.059738159179686126,-0.24665832519530917,0.019317626953122363,-0.03186035156250001,-0.01599121093749988,0.010040283203125541
-0.19757080078125,0.234405517578125,0.0550537109375,-0.048828125,-0.0128173828125,0.047576904296875
-0.21478271484375,0.4163970947265625,0.077423095703125,-0.0406341552734375,-0.015869140625,0.01434326171875
-0.09802246093749994,0.14508056640624836,0.11236572265624868,-0.01916503906249959,-0.03228759765625061,0.007446289062500279
-0.12850952148437514,0.07707214355468726,0.08697509765624988,-0.01861572265625018,-0.04815673828124996,0.017822265625000062
-0.13531494140625,0.084930419921875,0.03521728515625,-0.033905029296875,-0.037139892578125,0.0264892578125
-0.16021728515625,0.12335205078125,0.0311279296875,-0.0369720458984375,-0.0239715576171875,0.0306549072265625
-0.1502685546875,0.134857177734375,0.090728759765625,-0.02239990234375,-0.0206298828125,0.018157958984375
-0.11932373046875067,0.1768035888671873,0.08193969726562539,-0.018218994140624917,-0.035034179687500014,0.0032348632812498972
-0.145111083984375,0.182525634765625,0.119384765625,0.009246826171875,-0.027099609375,-0.006103515625
-0.16070556640625033,0.17750549316406267,0.14450073242187494,0.0010833740234373092,-0.008850097656249948,-0.007461547851562538
-0.20233154296875,0.159576416015625,0.127777099609375,-0.0103759765625,-0.0025634765625,-0.0081787109375
-0.2176971435546875,0.168670654296875,0.093170166015625,-0.0238189697265625,0.0074462890625,-0.005279541015625

-0.19757080078125,0.234405517578125,0.0550537109375,-0.048828125,-0.0128173828125,0.047576904296875
-0.21478271484375,0.4163970947265625,0.077423095703125,-0.0406341552734375,-0.015869140625,0.01434326171875
-0.09802246093749994,0.14508056640624836,0.11236572265624868,-0.01916503906249959,-0.03228759765625061,0.007446289062500279
-0.12850952148437514,0.07707214355468726,0.08697509765624988,-0.01861572265625018,-0.04815673828124996,0.017822265625000062
-0.13531494140625,0.084930419921875,0.03521728515625,-0.033905029296875,-0.037139892578125,0.0264892578125
-0.16021728515625,0.12335205078125,0.0311279296875,-0.0369720458984375,-0.0239715576171875,0.0306549072265625
-0.1502685546875,0.134857177734375,0.090728759765625,-0.02239990234375,-0.0206298828125,0.018157958984375
-0.11932373046875067,0.1768035888671873,0.08193969726562539,-0.018218994140624917,-0.035034179687500014,0.0032348632812498972
-0.145111083984375,0.182525634765625,0.119384765625,0.009246826171875,-0.027099609375,-0.006103515625
-0.16070556640625033,0.17750549316406267,0.14450073242187494,0.0010833740234373092,-0.008850097656249948,-0.007461547851562538
-0.20233154296875,0.159576416015625,0.127777099609375,-0.0103759765625,-0.0025634765625,-0.0081787109375
-0.2176971435546875,0.168670654296875,0.093170166015625,-0.0238189697265625,0.0074462890625,-0.005279541015625
-0.15939331054687522,0.2491455078124998,0.011627197265624424,-0.02868652343749965,0.01293945312499974,-0.0007934570312499065
-0.22167968750000103,0.24645996093750003,0.019134521484375347,-0.014617919921874972,-0.00569152832031267,0.004684448242187549
-0.278778076171875,0.22821044921875,0.0595703125,-0.01763916015625,-0.0208740234375,0.0108642578125
-0.2986907958984375,0.2158966064453125,0.10748291015625,-0.017974853515625,-0.016448974609375,0.0103759765625
-0.38494873046875,0.120025634765625,0.1427001953125,0.03076171875,0.033050537109375,0.002593994140625
-0.34068298339843667,0.09201049804687529,0.2263488769531254,0.026580810546874934,0.055389404296875354,-0.005142211914062525
-0.112396240234375,0.24462890625,0.138031005859375,0.008880615234375,0.117462158203125,-0.002838134765625
-0.0805511474609375,0.33056640625,0.058197021484375,-0.0043487548828125,0.0992584228515625,-0.031768798828125

-0.145111083984375,0.182525634765625,0.119384765625,0.009246826171875,-0.027099609375,-0.006103515625
-0.16070556640625033,0.17750549316406267,0.14450073242187494,0.0010833740234373092,-0.008850097656249948,-0.007461547851562538
-0.20233154296875,0.159576416015625,0.127777099609375,-0.0103759765625,-0.0025634765625,-0.0081787109375
-0.2176971435546875,0.168670654296875,0.093170166015625,-0.0238189697265625,0.0074462890625,-0.005279541015625
-0.15939331054687522,0.2491455078124998,0.011627197265624424,-0.02868652343749965,0.01293945312499974,-0.0007934570312499065
-0.22167968750000103,0.24645996093750003,0.019134521484375347,-0.014617919921874972,-0.00569152832031267,0.004684448242187549
-0.278778076171875,0.22821044921875,0.0595703125,-0.01763916015625,-0.0208740234375,0.0108642578125
-0.2986907958984375,0.2158966064453125,0.10748291015625,-0.017974853515625,-0.016448974609375,0.0103759765625
-0.38494873046875,0.120025634765625,0.1427001953125,0.03076171875,0.033050537109375,0.002593994140625
-0.34068298339843667,0.09201049804687529,0.2263488769531254,0.026580810546874934,0.055389404296875354,-0.005142211914062525
-0.112396240234375,0.24462890625,0.138031005859375,0.008880615234375,0.117462158203125,-0.002838134765625
-0.0805511474609375,0.33056640625,0.058197021484375,-0.0043487548828125,0.0992584228515625,-0.031768798828125
-0.176727294921875,0.303924560546875,-0.07073974609375,0.04150390625,0.05438232421875,-0.050933837890625
-0.1714935302734375,0.1609649658203125,-0.090789794921875,0.0857391357421875,0.0055084228515625,-0.0670318603515625
-0.15515136718750067,0.03286743164062686,0.042816162109379476,0.09170532226562468,-0.012878417968749714,-0.06668090820312493
-0.22387695312500025,0.10656738281250011,0.2380676269531254,0.08673095703125008,0.015502929687500383,-0.05992126464843741
-0.09320068359375,0.050048828125,0.071380615234375,0.066802978515625,0.057830810546875,-0.027557373046875
-0.0167999267578125,0.032012939453125,0.065826416015625,0.0465087890625,0.053314208984375,-0.0180816650390625
0.00250244140625,0.054046630859375,0.111602783203125,0.04541015625,0.04510498046875,-0.01953125
-0.07308959960937567,0.09277343750000044,0.1299133300781246,0.04241943359375001,0.037597656249999965,-0.01824951171874996

-0.38494873046875,0.120025634765625,0.1427001953125,0.03076171875,0.033050537109375,0.002593994140625
-0.34068298339843667,0.09201049804687529,0.2263488769531254,0.026580810546874934,0.055389404296875354,-0.005142211914062525
-0.112396240234375,0.24462890625,0.138031005859375,0.008880615234375,0.117462158203125,-0.002838134765625
-0.0805511474609375,0.33056640625,0.058197021484375,-0.0043487548828125,0.0992584228515625,-0.031768798828125
-0.176727294921875,0.303924560546875,-0.07073974609375,0.04150390625,0.05438232421875,-0.050933837890625
-0.1714935302734375,0.1609649658203125,-0.090789794921875,0.0857391357421875,0.0055084228515625,-0.0670318603515625
-0.15515136718750067,0.03286743164062686,0.042816162109379476,0.09170532226562468,-0.012878417968749714,-0.06668090820312493
-0.22387695312500025,0.10656738281250011,0.2380676269531254,0.08673095703125008,0.015502929687500383,-0.05992126464843741
-0.09320068359375,0.050048828125,0.071380615234375,0.066802978515625,0.057830810546875,-0.027557373046875
-0.0167999267578125,0.032012939453125,0.065826416015625,0.0465087890625,0.053314208984375,-0.0180816650390625
0.00250244140625,0.054046630859375,0.111602783203125,0.04541015625,0.04510498046875,-0.01953125
-0.07308959960937567,0.09277343750000044,0.1299133300781246,0.04241943359375001,0.037597656249999965,-0.01824951171874996
-0.115447998046875,0.089752197265625,0.089935302734375,0.04058837890625,0.032470703125,-0.01055908203125
-0.05206298828125,0.0361785888671875,0.1284332275390625,0.0228271484375,0.0162200927734375,-0.00274658203125
-0.03619384765625,0.0098876953125,0.110504150390625,0.010467529296875,-0.0040283203125,0.00152587890625
-0.0566253662109375,0.0252685546875,0.1685028076171875,-0.0224151611328125,-0.014495849609375,0.0079803466796875
0.0710754394531246,0.10870361328124968,0.1835937499999974,-0.07052612304687536,-0.03622436523437525,0.022064208984375205
0.014480590820311383,0.12591552734375072,0.015792846679686952,-0.09347534179687515,-0.04963684082031261,0.03332519531250007
-0.5205078125,0.17901611328125,0.349456787109375,-0.049957275390625,-0.071441650390625,0.03338623046875
-0.388214111328125,0.5126800537109375,0.3190765380859375,-0.0239410400390625,-0.027435302734375,-0.0009002685546875

-0.09320068359375,0.050048828125,0.071380615234375,0.066802978515625,0.057830810546875,-0.027557373046875
-0.0167999267578125,0.032012939453125,0.065826416015625,0.0465087890625,0.053314208984375,-0.0180816650390625
0.00250244140625,0.054046630859375,0.111602783203125,0.04541015625,0.04510498046875,-0.01953125
-0.07308959960937567,0.09277343750000044,0.1299133300781246,0.04241943359375001,0.037597656249999965,-0.01824951171874996
-0.115447998046875,0.089752197265625,0.089935302734375,0.04058837890625,0.032470703125,-0.01055908203125
-0.05206298828125,0.0361785888671875,0.1284332275390625,0.0228271484375,0.0162200927734375,-0.00274658203125
-0.03619384765625,0.0098876953125,0.110504150390625,0.010467529296875,-0.0040283203125,0.00152587890625
-0.0566253662109375,0.0252685546875,0.1685028076171875,-0.0224151611328125,-0.014495849609375,0.0079803466796875
0.0710754394531246,0.10870361328124968,0.1835937499999974,-0.07052612304687536,-0.03622436523437525,0.022064208984375205
0.014480590820311383,0.12591552734375072,0.015792846679686952,-0.09347534179687515,-0.04963684082031261,0.03332519531250007
-0.5205078125,0.17901611328125,0.349456787109375,-0.049957275390625,-0.071441650390625,0.03338623046875
-0.388214111328125,0.5126800537109375,0.3190765380859375,-0.0239410400390625,-0.027435302734375,-0.0009002685546875
-0.046630859375,-0.1180419921875,0.10333251953125,-0.037506103515625,-0.0162353515625,-0.0054931640625
-0.06352233886718972,-0.00805664062499769,0.01164245605468853,-0.03605651855468756,-0.0157928466796875,0.03596496582031291
-0.310882568359375,0.428131103515625,0.06585693359375,-0.04400634765625,-0.03033447265625,0.048736572265625
-0.1456756591796875,0.3115386962890625,0.024932861328125,-0.0194091796875,-0.0266265869140625,0.01153564453125
-0.0948486328125,0.17254638671875,0.100433349609375,-0.019073486328125,-0.028839111328125,0.0072021484375
-0.134918212890625,0.103790283203125,0.06268310546875,-0.01068115234375,-0.0454864501953125,0.015777587890625
-0.1578369140625002,0.1085205078124996,0.05355834960937499,-0.019256591796875097,-0.044189453124999806,0.018859863281250014
-0.17277526855468747,0.08090209960937457,0.0675201416015627,-0.02389526367187503,-0.029632568359374774,0.02340698242187511

0.0710754394531246,0.10870361328124968,0.1835937499999974,-0.07052612304687536,-0.03622436523437525,0.022064208984375205
0.014480590820311383,0.12591552734375072,0.015792846679686952,-0.09347534179687515,-0.04963684082031261,0.03332519531250007
-0.5205078125,0.17901611328125,0.349456787109375,-0.049957275390625,-0.071441650390625,0.03338623046875
-0.388214111328125,0.5126800537109375,0.3190765380859375,-0.0239410400390625,-0.027435302734375,-0.0009002685546875
-0.046630859375,-0.1180419921875,0.10333251953125,-0.037506103515625,-0.0162353515625,-0.0054931640625
-0.06352233886718972,-0.00805664062499769,0.01164245605468853,-0.03605651855468756,-0.0157928466796875,0.03596496582031291
-0.310882568359375,0.428131103515625,0.06585693359375,-0.04400634765625,-0.03033447265625,0.048736572265625
-0.1456756591796875,0.3115386962890625,0.024932861328125,-0.0194091796875,-0.0266265869140625,0.01153564453125
-0.0948486328125,0.17254638671875,0.100433349609375,-0.019073486328125,-0.028839111328125,0.0072021484375
-0.134918212890625,0.103790283203125,0.06268310546875,-0.01068115234375,-0.0454864501953125,0.015777587890625
-0.1578369140625002,0.1085205078124996,0.05355834960937499,-0.019256591796875097,-0.044189453124999806,0.018859863281250014
-0.17277526855468747,0.08090209960937457,0.0675201416015627,-0.02389526367187503,-0.029632568359374774,0.02340698242187511
-0.14093017578125,0.1446533203125,0.06243896484375,-0.0244140625,-0.021240234375,0.02337646484375
-0.12457275390625,0.178924560546875,0.082427978515625,-0.0137786865234375,-0.028289794921875,0.005416870117187499
-0.138580322265625,0.2044677734375,0.0755615234375,0.005950927734375,-0.018402099609375,-0.0029296875
-0.17745971679687522,0.15208435058593775,0.0917510986328124,0.010009765624999898,-0.008728027343749918,-0.006622314453125031
-0.24859619140625,0.147735595703125,0.085418701171875,-0.02264404296875,0.005889892578125,-0.001678466796875
-0.2240447998046875,0.220611572265625,0.0399169921875,-0.0286407470703125,0.007965087890625,0.0070343017578125
-0.194091796875,0.253814697265625,0.039093017578125,-0.012664794921875,-0.00213623046875,0.009857177734375
-0.204193115234375,0.248260498046875,0.0513763427734375,-0.01470947265625,-0.0064849853515625,0.00787353515625

-0.0948486328125,0.17254638671875,0.100433349609375,-0.019073486328125,-0.028839111328125,0.0072021484375
-0.134918212890625,0.103790283203125,0.06268310546875,-0.01068115234375,-0.0454864501953125,0.015777587890625
-0.1578369140625002,0.1085205078124996,0.05355834960937499,-0.019256591796875097,-0.044189453124999806,0.018859863281250014
-0.17277526855468747,0.08090209960937457,0.0675201416015627,-0.02389526367187503,-0.029632568359374774,0.02340698242187511
-0.14093017578125,0.1446533203125,0.06243896484375,-0.0244140625,-0.021240234375,0.02337646484375
-0.12457275390625,0.178924560546875,0.082427978515625,-0.0137786865234375,-0.028289794921875,0.005416870117187499
-0.138580322265625,0.2044677734375,0.0755615234375,0.005950927734375,-0.018402099609375,-0.0029296875
-0.17745971679687522,0.15208435058593775,0.0917510986328124,0.010009765624999898,-0.008728027343749918,-0.006622314453125031
-0.24859619140625,0.147735595703125,0.085418701171875,-0.02264404296875,0.005889892578125,-0.001678466796875
-0.2240447998046875,0.220611572265625,0.0399169921875,-0.0286407470703125,0.007965087890625,0.0070343017578125
-0.194091796875,0.253814697265625,0.039093017578125,-0.012664794921875,-0.00213623046875,0.009857177734375
-0.204193115234375,0.248260498046875,0.0513763427734375,-0.01470947265625,-0.0064849853515625,0.00787353515625
-0.26095581054687583,0.18930053710937414,0.08999633789062633,-0.015350341796874905,-0.00845336914062496,0.004028320312499955
-0.2817687988281247,0.18743896484375047,0.14164733886718747,-0.008804321289062438,-0.0035095214843749176,0.0028991699218750082
-0.256103515625,0.237274169921875,0.093536376953125,-0.002471923828125,0.012603759765625,0.003875732421875
-0.3134765625,0.1538238525390625,0.147125244140625,0.0202789306640625,0.0483551025390625,-0.0016632080078125
-0.267913818359375,0.127655029296875,0.212371826171875,0.0140380859375,0.081451416015625,-0.009552001953125
-0.1627655029296875,0.188995361328125,0.089569091796875,0.0120086669921875,0.1114349365234375,-0.01025390625
-0.18084716796875,0.27911376953125,0.09552001953125,-0.00250244140625,0.096405029296875,-0.020294189453125
-0.1480712890625,0.3074951171875,-0.0737152099609375,0.030914306640625,0.045135498046875,-0.0541229248046875

-0.24859619140625,0.147735595703125,0.085418701171875,-0.02264404296875,0.005889892578125,-0.001678466796875
-0.2240447998046875,0.220611572265625,0.0399169921875,-0.0286407470703125,0.007965087890625,0.0070343017578125
-0.194091796875,0.253814697265625,0.039093017578125,-0.012664794921875,-0.00213623046875,0.009857177734375
-0.204193115234375,0.248260498046875,0.0513763427734375,-0.01470947265625,-0.0064849853515625,0.00787353515625
-0.26095581054687583,0.18930053710937414,0.08999633789062633,-0.015350341796874905,-0.00845336914062496,0.004028320312499955
-0.2817687988281247,0.18743896484375047,0.14164733886718747,-0.008804321289062438,-0.0035095214843749176,0.0028991699218750082
-0.256103515625,0.237274169921875,0.093536376953125,-0.002471923828125,0.012603759765625,0.003875732421875
-0.3134765625,0.1538238525390625,0.147125244140625,0.0202789306640625,0.0483551025390625,-0.0016632080078125
-0.267913818359375,0.127655029296875,0.212371826171875,0.0140380859375,0.081451416015625,-0.009552001953125
-0.1627655029296875,0.188995361328125,0.089569091796875,0.0120086669921875,0.1114349365234375,-0.01025390625
-0.18084716796875,0.27911376953125,0.09552001953125,-0.00250244140625,0.096405029296875,-0.020294189453125
-0.1480712890625,0.3074951171875,-0.0737152099609375,0.030914306640625,0.045135498046875,-0.0541229248046875
-0.15945434570312497,0.1688232421874957,-0.06338500976561819,0.06491088867187533,-0.0007324218750006261,-0.0662536621093751
-0.2168731689453125,0.1659393310546875,0.1805267333984375,0.0728912353515625,-0.0006866455078125,-0.0654449462890625
-0.167236328125,0.057525634765625,0.070831298828125,0.100494384765625,0.03826904296875,-0.04925537109375
-0.10052490234375,0.0709228515625,0.0993804931640625,0.06549072265625,0.0449066162109375,-0.0362396240234375
-0.04547119140625,0.045501708984375,0.126129150390625,0.048370361328125,0.044219970703125,-0.02899169921875
-0.03913879394531253,0.07431030273437547,0.12585449218749994,0.04928588867187506,0.03784179687499984,-0.03018188476562499
-0.05010986328125,0.057525634765625,0.110321044921875,0.05169677734375,0.02459716796875,-0.017852783203125
-0.068267822265625,0.0393829345703125,0.09375,0.0466461181640625,0.0163116455078125,-0.0057220458984375

-0.267913818359375,0.127655029296875,0.212371826171875,0.0140380859375,0.081451416015625,-0.009552001953125
-0.1627655029296875,0.188995361328125,0.089569091796875,0.0120086669921875,0.1114349365234375,-0.01025390625
-0.18084716796875,0.27911376953125,0.09552001953125,-0.00250244140625,0.096405029296875,-0.020294189453125
-0.1480712890625,0.3074951171875,-0.0737152099609375,0.030914306640625,0.045135498046875,-0.0541229248046875
-0.15945434570312497,0.1688232421874957,-0.06338500976561819,0.06491088867187533,-0.0007324218750006261,-0.0662536621093751
-0.2168731689453125,0.1659393310546875,0.1805267333984375,0.0728912353515625,-0.0006866455078125,-0.0654449462890625
-0.167236328125,0.057525634765625,0.070831298828125,0.100494384765625,0.03826904296875,-0.04925537109375
-0.10052490234375,0.0709228515625,0.0993804931640625,0.06549072265625,0.0449066162109375,-0.0362396240234375
-0.04547119140625,0.045501708984375,0.126129150390625,0.048370361328125,0.044219970703125,-0.02899169921875
-0.03913879394531253,0.07431030273437547,0.12585449218749994,0.04928588867187506,0.03784179687499984,-0.03018188476562499
-0.05010986328125,0.057525634765625,0.110321044921875,0.05169677734375,0.02459716796875,-0.017852783203125
-0.068267822265625,0.0393829345703125,0.09375,0.0466461181640625,0.0163116455078125,-0.0057220458984375
-0.057952880859375,0.00689697265625,0.13165283203125,0.030426025390625,0.006500244140625,0.003173828125
-0.0572662353515625,-0.0332183837890625,0.134124755859375,0.0039215087890625,-0.0017852783203125,0.0049285888671875
-0.040924072265625,0.02716064453125,0.167633056640625,-0.030242919921875,-0.0079345703125,0.007354736328125
-0.039642333984375,0.0865325927734375,0.194305419921875,-0.0461883544921875,-0.0168914794921875,0.012939453125
-0.031585693359375,0.114349365234375,0.131805419921875,-0.06671142578125,-0.035247802734375,0.025054931640625
-0.045196533203125,0.0833587646484375,0.10845947265625,-0.08392333984375,-0.0374603271484375,0.0271759033203125
-0.129241943359375,0.060333251953125,0.25225830078125,-0.0706787109375,-0.04107666015625,0.028411865234375
-0.38073730468747635,0.5803680419921644,0.291473388671857,-0.013259887695312559,-0.020004272460937694,0.01216125488281124

-0.04547119140625,0.045501708984375,0.126129150390625,0.048370361328125,0.044219970703125,-0.02899169921875
-0.03913879394531253,0.07431030273437547,0.12585449218749994,0.04928588867187506,0.03784179687499984,-0.03018188476562499
-0.05010986328125,0.057525634765625,0.110321044921875,0.05169677734375,0.02459716796875,-0.017852783203125
-0.068267822265625,0.0393829345703125,0.09375,0.0466461181640625,0.0163116455078125,-0.0057220458984375
-0.057952880859375,0.00689697265625,0.13165283203125,0.030426025390625,0.006500244140625,0.003173828125
-0.0572662353515625,-0.0332183837890625,0.134124755859375,0.0039215087890625,-0.0017852783203125,0.0049285888671875
-0.040924072265625,0.02716064453125,0.167633056640625,-0.030242919921875,-0.0079345703125,0.007354736328125
-0.039642333984375,0.0865325927734375,0.194305419921875,-0.0461883544921875,-0.0168914794921875,0.012939453125
-0.031585693359375,0.114349365234375,0.131805419921875,-0.06671142578125,-0.035247802734375,0.025054931640625
-0.045196533203125,0.0833587646484375,0.10845947265625,-0.08392333984375,-0.0374603271484375,0.0271759033203125
-0.129241943359375,0.060333251953125,0.25225830078125,-0.0706787109375,-0.04107666015625,0.028411865234375
-0.38073730468747635,0.5803680419921644,0.291473388671857,-0.013259887695312559,-0.020004272460937694,0.01216125488281124
0.016387939453125,-0.071533203125,-0.012176513671875,-0.02813720703125,-0.01788330078125,0.003143310546875
-0.0498504638671875,0.100494384765625,0.055267333984375,-0.0278472900390625,-0.019866943359375,0.0191192626953125
-0.272491455078125,0.382843017578125,0.11773681640625,-0.023193359375,-0.032958984375,0.0255126953125
-0.142181396484375,0.203125,0.1089630126953125,-0.0079803466796875,-0.0221405029296875,0.00079345703125
-0.1331787109375,0.096527099609375,0.111053466796875,-0.0010986328125,-0.02764892578125,0.00048828125
-0.13970947265625,0.1009521484375,0.0784759521484375,-0.0048065185546875,-0.0435943603515625,0.0128936767578125
-0.157623291015625,0.121124267578125,0.050445556640625,-0.0269775390625,-0.03204345703125,0.01910400390625
-0.1784210205078125,0.1600189208984375,0.0529937744140625,-0.022857666015625,-0.018463134765625,0.019989013671875

-0.031585693359375,0.114349365234375,0.131805419921875,-0.06671142578125,-0.035247802734375,0.025054931640625
-0.045196533203125,0.0833587646484375,0.10845947265625,-0.08392333984375,-0.0374603271484375,0.0271759033203125
-0.129241943359375,0.060333251953125,0.25225830078125,-0.0706787109375,-0.04107666015625,0.028411865234375
-0.38073730468747635,0.5803680419921644,0.291473388671857,-0.013259887695312559,-0.020004272460937694,0.01216125488281124
0.016387939453125,-0.071533203125,-0.012176513671875,-0.02813720703125,-0.01788330078125,0.003143310546875
-0.0498504638671875,0.100494384765625,0.055267333984375,-0.0278472900390625,-0.019866943359375,0.0191192626953125
-0.272491455078125,0.382843017578125,0.11773681640625,-0.023193359375,-0.032958984375,0.0255126953125
-0.142181396484375,0.203125,0.1089630126953125,-0.0079803466796875,-0.0221405029296875,0.00079345703125
-0.1331787109375,0.096527099609375,0.111053466796875,-0.0010986328125,-0.02764892578125,0.00048828125
-0.13970947265625,0.1009521484375,0.0784759521484375,-0.0048065185546875,-0.0435943603515625,0.0128936767578125
-0.157623291015625,0.121124267578125,0.050445556640625,-0.0269775390625,-0.03204345703125,0.01910400390625
-0.1784210205078125,0.1600189208984375,0.0529937744140625,-0.022857666015625,-0.018463134765625,0.019989013671875
-0.164031982421875,0.176055908203125,0.093902587890625,-0.014617919921875,-0.01434326171875,0.018280029296875
-0.1279907226562495,0.19306945800781203,0.09127807617187472,-0.007858276367187337,-0.02168273925781268,0.008926391601562274
-0.0992431640625,0.184967041015625,0.084228515625,0.00775146484375,-0.03369140625,-0.000885009765625
-0.1373291015625,0.1628875732421875,0.076904296875,0.0042572021484375,-0.02960205078125,-0.0013580322265625
-0.16302490234375075,0.13757324218749964,0.08782958984375046,0.00576782226562499,-0.020874023437499896,-0.004455566406250032
-0.1843109130859375,0.12890625,0.1017913818359375,0.0005645751953125,-0.016387939453125,-0.0057373046875
-0.18804931640625,0.135589599609375,0.11138916015625,-0.008514404296875,-0.007232666015625,-0.00445556640625
-0.1572265625,0.16156005859375,0.1009979248046875,-0.0110321044921875,-0.002532958984375,-0.0032806396484375

-0.1331787109375,0.096527099609375,0.111053466796875,-0.0010986328125,-0.02764892578125,0.00048828125
-0.13970947265625,0.1009521484375,0.0784759521484375,-0.0048065185546875,-0.0435943603515625,0.0128936767578125
-0.157623291015625,0.121124267578125,0.050445556640625,-0.0269775390625,-0.03204345703125,0.01910400390625
-0.1784210205078125,0.1600189208984375,0.0529937744140625,-0.022857666015625,-0.018463134765625,0.019989013671875
-0.164031982421875,0.176055908203125,0.093902587890625,-0.014617919921875,-0.01434326171875,0.018280029296875
-0.1279907226562495,0.19306945800781203,0.09127807617187472,-0.007858276367187337,-0.02168273925781268,0.008926391601562274
-0.0992431640625,0.184967041015625,0.084228515625,0.00775146484375,-0.03369140625,-0.000885009765625
-0.1373291015625,0.1628875732421875,0.076904296875,0.0042572021484375,-0.02960205078125,-0.0013580322265625
-0.16302490234375075,0.13757324218749964,0.08782958984375046,0.00576782226562499,-0.020874023437499896,-0.004455566406250032
-0.1843109130859375,0.12890625,0.1017913818359375,0.0005645751953125,-0.016387939453125,-0.0057373046875
-0.18804931640625,0.135589599609375,0.11138916015625,-0.008514404296875,-0.007232666015625,-0.00445556640625
-0.1572265625,0.16156005859375,0.1009979248046875,-0.0110321044921875,-0.002532958984375,-0.0032806396484375
-0.15093994140625,0.181488037109375,0.075286865234375,-0.007476806640625,-0.002044677734375,-0.0008544921875
-0.15521240234374975,0.17591857910156292,0.03381347656249878,-0.0031280517578122476,-0.00418090820312519,0.0022125244140625733
-0.168731689453125,0.150634765625,0.030364990234375,0.000762939453125,-0.011749267578125,0.002838134765625
-0.17912292480468806,0.1510620117187501,0.046127319335937556,-0.0010681152343750867,-0.01771545410156255,0.004516601562500049
-0.19024658203125,0.1953125,0.04248046875,-0.01959228515625,-0.013580322265625,0.011505126953125
-0.2231292724609375,0.2159881591796875,0.0517578125,-0.02105712890625,-0.0143585205078125,0.0106964111328125
-0.2554626464843741,0.21447753906250022,0.06326293945312463,-0.02154541015625002,-0.01086425781249991,0.009887695312499997
-0.247222900390625,0.22021484375,0.0567474365234375,-0.02081298828125,-0.0101776123046875,0.0093994140625

-0.16302490234375075,0.13757324218749964,0.08782958984375046,0.00576782226562499,-0.020874023437499896,-0.004455566406250032
-0.1843109130859375,0.12890625,0.1017913818359375,0.0005645751953125,-0.016387939453125,-0.0057373046875
-0.18804931640625,0.135589599609375,0.11138916015625,-0.008514404296875,-0.007232666015625,-0.00445556640625
-0.1572265625,0.16156005859375,0.1009979248046875,-0.0110321044921875,-0.002532958984375,-0.0032806396484375
-0.15093994140625,0.181488037109375,0.075286865234375,-0.007476806640625,-0.002044677734375,-0.0008544921875
-0.15521240234374975,0.17591857910156292,0.03381347656249878,-0.0031280517578122476,-0.00418090820312519,0.0022125244140625733
-0.168731689453125,0.150634765625,0.030364990234375,0.000762939453125,-0.011749267578125,0.002838134765625
-0.17912292480468806,0.1510620117187501,0.046127319335937556,-0.0010681152343750867,-0.01771545410156255,0.004516601562500049
-0.19024658203125,0.1953125,0.04248046875,-0.01959228515625,-0.013580322265625,0.011505126953125
-0.2231292724609375,0.2159881591796875,0.0517578125,-0.02105712890625,-0.0143585205078125,0.0106964111328125
-0.2554626464843741,0.21447753906250022,0.06326293945312463,-0.02154541015625002,-0.01086425781249991,0.009887695312499997
-0.247222900390625,0.22021484375,0.0567474365234375,-0.02081298828125,-0.0101776123046875,0.0093994140625
-0.26190185546875,0.263397216796875,0.0767822265625,-0.01434326171875,-0.013916015625,0.009307861328125
-0.2514801025390625,0.27557373046875,0.0297698974609375,-0.0027313232421875,-0.0131378173828125,0.009124755859375
-0.323455810546875,0.242095947265625,0.049041748046875,0.0078125,-0.006622314453125,0.010772705078125
-0.3117828369140602,0.15473937988281158,0.12197875976562728,0.020736694335937705,0.004974365234375375,0.006240844726562432
-0.178955078125,0.1907958984375,0.194549560546875,0.02630615234375,0.05902099609375,0.0111083984375
-0.1105041503906247,0.24520874023437642,0.1268310546874985,0.040710449218750305,0.062210083007812285,-0.004196166992187826
-0.134521484375,0.271484375,0.09088134765625,0.047515869140625,0.046295166015625,-0.015625
-0.19207763671875,0.2080078125,-0.07330322265625,0.0665435791015625,0.0372772216796875,-0.028411865234375

-0.19024658203125,0.1953125,0.04248046875,-0.01959228515625,-0.013580322265625,0.011505126953125
-0.2231292724609375,0.2159881591796875,0.0517578125,-0.02105712890625,-0.0143585205078125,0.0106964111328125
-0.2554626464843741,0.21447753906250022,0.06326293945312463,-0.02154541015625002,-0.01086425781249991,0.009887695312499997
-0.247222900390625,0.22021484375,0.0567474365234375,-0.02081298828125,-0.0101776123046875,0.0093994140625
-0.26190185546875,0.263397216796875,0.0767822265625,-0.01434326171875,-0.013916015625,0.009307861328125
-0.2514801025390625,0.27557373046875,0.0297698974609375,-0.0027313232421875,-0.0131378173828125,0.009124755859375
-0.323455810546875,0.242095947265625,0.049041748046875,0.0078125,-0.006622314453125,0.010772705078125
-0.3117828369140602,0.15473937988281158,0.12197875976562728,0.020736694335937705,0.004974365234375375,0.006240844726562432
-0.178955078125,0.1907958984375,0.194549560546875,0.02630615234375,0.05902099609375,0.0111083984375
-0.1105041503906247,0.24520874023437642,0.1268310546874985,0.040710449218750305,0.062210083007812285,-0.004196166992187826
-0.134521484375,0.271484375,0.09088134765625,0.047515869140625,0.046295166015625,-0.015625
-0.19207763671875,0.2080078125,-0.07330322265625,0.0665435791015625,0.0372772216796875,-0.028411865234375
-0.18746948242187372,0.17626953125000053,-0.055480957031244366,0.0977172851562494,0.015258789062499402,-0.03573608398437531
-0.1524658203125,0.2431793212890625,0.132049560546875,0.067901611328125,0.02655029296875,-0.049285888671875
-0.177093505859375,0.097808837890625,0.0751953125,0.063568115234375,0.030792236328125,-0.078460693359375
-0.18145751953125,0.192657470703125,0.1061248779296875,0.0592803955078125,0.0267181396484375,-0.0741729736328125
-0.120147705078125,0.151397705078125,0.124664306640625,0.0662841796875,0.035400390625,-0.079833984375
-0.10842895507812382,0.12174987792968793,0.15782165527343736,0.05332946777343649,0.03575134277343747,-0.07655334472656199
-0.06793212890625,0.13079833984375,0.11541748046875,0.05780029296875,0.03118896484375,-0.070068359375
-0.06546020507812496,0.12199401855468714,0.10926818847656261,0.06297302246093756,0.021560668945312274,-0.06800842285156239

-0.178955078125,0.1907958984375,0.194549560546875,0.02630615234375,0.05902099609375,0.0111083984375
-0.1105041503906247,0.24520874023437642,0.1268310546874985,0.040710449218750305,0.062210083007812285,-0.004196166992187826
-0.134521484375,0.271484375,0.09088134765625,0.047515869140625,0.046295166015625,-0.015625
-0.19207763671875,0.2080078125,-0.07330322265625,0.0665435791015625,0.0372772216796875,-0.028411865234375
-0.18746948242187372,0.17626953125000053,-0.055480957031244366,0.0977172851562494,0.015258789062499402,-0.03573608398437531
-0.1524658203125,0.2431793212890625,0.132049560546875,0.067901611328125,0.02655029296875,-0.049285888671875
-0.177093505859375,0.097808837890625,0.0751953125,0.063568115234375,0.030792236328125,-0.078460693359375
-0.18145751953125,0.192657470703125,0.1061248779296875,0.0592803955078125,0.0267181396484375,-0.0741729736328125
-0.120147705078125,0.151397705078125,0.124664306640625,0.0662841796875,0.035400390625,-0.079833984375
-0.10842895507812382,0.12174987792968793,0.15782165527343736,0.05332946777343649,0.03575134277343747,-0.07655334472656199
-0.06793212890625,0.13079833984375,0.11541748046875,0.05780029296875,0.03118896484375,-0.070068359375
-0.06546020507812496,0.12199401855468714,0.10926818847656261,0.06297302246093756,0.021560668945312274,-0.06800842285156239
-0.107086181640625,0.087982177734375,0.077484130859375,0.059906005859375,0.01312255859375,-0.0616455078125
-0.0489044189453125,0.0485382080078125,0.0955963134765625,0.0479583740234375,0.0040740966796875,-0.053497314453125
-0.02261352539062578,0.02545166015624923,0.12127685546875014,0.02941894531249936,0.0025329589843748617,-0.04483032226562467
-0.0500640869140625,0.001251220703125,0.1268157958984375,0.0167999267578125,-0.0063323974609375,-0.0351409912109375
0.008880615234375,0.04315185546875,0.1492919921875,-0.014129638671875,-0.02862548828125,-0.020172119140625
-0.064849853515625,0.085906982421875,0.1630096435546875,-0.0322113037109375,-0.0300445556640625,-0.0138092041015625
-0.09210205078125,0.150390625,0.239593505859375,-0.01507568359375,-0.0396728515625,-0.017303466796875
-0.05622863769531163,0.11230468749999806,0.22305297851562467,-0.006225585937499957,-0.052444458007812916,-0.016220092773437396

-0.120147705078125,0.151397705078125,0.124664306640625,0.0662841796875,0.035400390625,-0.079833984375
-0.10842895507812382,0.12174987792968793,0.15782165527343736,0.05332946777343649,0.03575134277343747,-0.07655334472656199
-0.06793212890625,0.13079833984375,0.11541748046875,0.05780029296875,0.03118896484375,-0.070068359375
-0.06546020507812496,0.12199401855468714,0.10926818847656261,0.06297302246093756,0.021560668945312274,-0.06800842285156239
-0.107086181640625,0.087982177734375,0.077484130859375,0.059906005859375,0.01312255859375,-0.0616455078125
-0.0489044189453125,0.0485382080078125,0.0955963134765625,0.0479583740234375,0.0040740966796875,-0.053497314453125
-0.02261352539062578,0.02545166015624923,0.12127685546875014,0.02941894531249936,0.0025329589843748617,-0.04483032226562467
-0.0500640869140625,0.001251220703125,0.1268157958984375,0.0167999267578125,-0.0063323974609375,-0.0351409912109375
0.008880615234375,0.04315185546875,0.1492919921875,-0.014129638671875,-0.02862548828125,-0.020172119140625
-0.064849853515625,0.085906982421875,0.1630096435546875,-0.0322113037109375,-0.0300445556640625,-0.0138092041015625
-0.09210205078125,0.150390625,0.239593505859375,-0.01507568359375,-0.0396728515625,-0.017303466796875
-0.05622863769531163,0.11230468749999806,0.22305297851562467,-0.006225585937499957,-0.052444458007812916,-0.016220092773437396
-0.033111572265625,0.049468994140625,0.228912353515625,-0.013397216796875,-0.052978515625,-0.012939453125
-0.03469848632812659,0.1037445068359395,0.21771240234375042,-0.032714843750000236,-0.04261779785156222,-0.0017242431640622467
-0.334197998046875,0.260650634765625,0.344390869140625,-0.018524169921875,-0.019622802734375,0.005462646484375
-0.1748046875,-0.026275634765625,0.1178436279296875,-0.0100860595703125,-0.0310211181640625,-0.00152587890625
-0.20214843750000233,0.2882995605468831,0.11862182617187358,-0.044281005859372856,-0.029022216796875736,0.0077819824218750356
-0.211517333984375,0.2869720458984375,0.0764617919921875,-0.0114898681640625,-0.0389862060546875,-0.00048828125
-0.217010498046875,0.153045654296875,0.122161865234375,-0.01409912109375,-0.030853271484375,-0.008026123046875
-0.19183349609375,0.1188812255859375,0.1455535888671875,-0.0047760009765625,-0.031494140625,-0.0034332275390625

0.008880615234375,0.04315185546875,0.1492919921875,-0.014129638671875,-0.02862548828125,-0.020172119140625
-0.064849853515625,0.085906982421875,0.1630096435546875,-0.0322113037109375,-0.0300445556640625,-0.0138092041015625
-0.09210205078125,0.150390625,0.239593505859375,-0.01507568359375,-0.0396728515625,-0.017303466796875
-0.05622863769531163,0.11230468749999806,0.22305297851562467,-0.006225585937499957,-0.052444458007812916,-0.016220092773437396
-0.033111572265625,0.049468994140625,0.228912353515625,-0.013397216796875,-0.052978515625,-0.012939453125
-0.03469848632812659,0.1037445068359395,0.21771240234375042,-0.032714843750000236,-0.04261779785156222,-0.0017242431640622467
-0.334197998046875,0.260650634765625,0.344390869140625,-0.018524169921875,-0.019622802734375,0.005462646484375
-0.1748046875,-0.026275634765625,0.1178436279296875,-0.0100860595703125,-0.0310211181640625,-0.00152587890625
-0.20214843750000233,0.2882995605468831,0.11862182617187358,-0.044281005859372856,-0.029022216796875736,0.0077819824218750356
-0.211517333984375,0.2869720458984375,0.0764617919921875,-0.0114898681640625,-0.0389862060546875,-0.00048828125
-0.217010498046875,0.153045654296875,0.122161865234375,-0.01409912109375,-0.030853271484375,-0.008026123046875
-0.19183349609375,0.1188812255859375,0.1455535888671875,-0.0047760009765625,-0.031494140625,-0.0034332275390625
-0.18743896484375,0.072174072265625,0.115386962890625,-0.00531005859375,-0.036285400390625,0.005706787109375
-0.17730712890625003,0.08543395996093792,0.10099792480468653,-0.027023315429687986,-0.035446166992187354,0.015853881835937757
-0.17791748046875,0.11456298828125,0.07427978515625,-0.031585693359375,-0.028533935546875,0.0242919921875
-0.16551208496093703,0.1577301025390632,0.0688018798828125,-0.029357910156250045,-0.019729614257812434,0.027328491210937535
-0.11004638671875,0.18377685546875,0.07574462890625,-0.0064697265625,-0.0263671875,0.018768310546875
-0.0997467041015625,0.203216552734375,0.0963134765625,0.0014190673828125,-0.0311431884765625,0.011077880859375
-0.1023864746093753,0.20175170898437433,0.09423828124999914,0.004516601562500179,-0.03405761718750024,0.004394531249999786
-0.116729736328125,0.1792144775390625,0.0810394287109375,0.0106201171875,-0.04376220703125,-0.0004119873046875

-0.20214843750000233,0.2882995605468831,0.11862182617187358,-0.044281005859372856,-0.029022216796875736,0.0077819824218750356
-0.211517333984375,0.2869720458984375,0.0764617919921875,-0.0114898681640625,-0.0389862060546875,-0.00048828125
-0.217010498046875,0.153045654296875,0.122161865234375,-0.01409912109375,-0.030853271484375,-0.008026123046875
-0.19183349609375,0.1188812255859375,0.1455535888671875,-0.0047760009765625,-0.031494140625,-0.0034332275390625
-0.18743896484375,0.072174072265625,0.115386962890625,-0.00531005859375,-0.036285400390625,0.005706787109375
-0.17730712890625003,0.08543395996093792,0.10099792480468653,-0.027023315429687986,-0.035446166992187354,0.015853881835937757
-0.17791748046875,0.11456298828125,0.07427978515625,-0.031585693359375,-0.028533935546875,0.0242919921875
-0.16551208496093703,0.1577301025390632,0.0688018798828125,-0.029357910156250045,-0.019729614257812434,0.027328491210937535
-0.11004638671875,0.18377685546875,0.07574462890625,-0.0064697265625,-0.0263671875,0.018768310546875
-0.0997467041015625,0.203216552734375,0.0963134765625,0.0014190673828125,-0.0311431884765625,0.011077880859375
-0.1023864746093753,0.20175170898437433,0.09423828124999914,0.004516601562500179,-0.03405761718750024,0.004394531249999786
-0.116729736328125,0.1792144775390625,0.0810394287109375,0.0106201171875,-0.04376220703125,-0.0004119873046875
-0.178253173828125,0.137542724609375,0.100677490234375,0.00665283203125,-0.0478515625,-0.0057373046875
-0.1844635009765625,0.137237548828125,0.075042724609375,0.003509521484375,-0.04400634765625,-0.008819580078125
-0.166046142578125,0.157958984375,0.053192138671875,-0.006988525390625,-0.03338623046875,-0.007965087890625
-0.18736267089843736,0.15313720703125006,0.05195617675781285,-0.004776000976562297,-0.02932739257812481,-0.00765991210937501
-0.193023681640625,0.143798828125,0.078948974609375,0.004058837890625,-0.015167236328125,-0.0086669921875
-0.18038940429687464,0.16143798828125056,0.08018493652343725,-0.0021972656249999866,-0.010253906249999927,-0.0054931640624999644
-0.166351318359375,0.16815185546875,0.066619873046875,0.00140380859375,-0.012939453125,-0.00408935546875
-0.1573638916015625,0.1739501953125,0.0481414794921875,-0.0011138916015625,-0.0157928466796875,-0.001312255859375

-0.11004638671875,0.18377685546875,0.07574462890625,-0.0064697265625,-0.0263671875,0.018768310546875
-0.0997467041015625,0.203216552734375,0.0963134765625,0.0014190673828125,-0.0311431884765625,0.011077880859375
-0.1023864746093753,0.20175170898437433,0.09423828124999914,0.004516601562500179,-0.03405761718750024,0.004394531249999786
-0.116729736328125,0.1792144775390625,0.0810394287109375,0.0106201171875,-0.04376220703125,-0.0004119873046875
-0.178253173828125,0.137542724609375,0.100677490234375,0.00665283203125,-0.0478515625,-0.0057373046875
-0.1844635009765625,0.137237548828125,0.075042724609375,0.003509521484375,-0.04400634765625,-0.008819580078125
-0.166046142578125,0.157958984375,0.053192138671875,-0.006988525390625,-0.03338623046875,-0.007965087890625
-0.18736267089843736,0.15313720703125006,0.05195617675781285,-0.004776000976562297,-0.02932739257812481,-0.00765991210937501
-0.193023681640625,0.143798828125,0.078948974609375,0.004058837890625,-0.015167236328125,-0.0086669921875
-0.18038940429687464,0.16143798828125056,0.08018493652343725,-0.0021972656249999866,-0.010253906249999927,-0.0054931640624999644
-0.166351318359375,0.16815185546875,0.066619873046875,0.00140380859375,-0.012939453125,-0.00408935546875
-0.1573638916015625,0.1739501953125,0.0481414794921875,-0.0011138916015625,-0.0157928466796875,-0.001312255859375
-0.1683654785156264,0.1764526367187496,0.02041625976562409,-0.006103515624999903,-0.01782226562500028,0.003906250000000046
-0.1870269775390625,0.205596923828125,0.0149993896484375,-0.0054473876953125,-0.0211334228515625,0.004669189453125
-0.21124267578125,0.21942138671875,0.002716064453125,-0.008056640625,-0.02166748046875,0.004638671875
-0.2914886474609375,0.1802825927734375,0.0476531982421875,-0.0070648193359375,-0.021453857421875,0.006103515625
-0.253509521484375,0.299285888671875,0.01849365234375,0.0087890625,-0.008026123046875,0.007110595703125
-0.30407714843750455,0.19927978515624156,0.047744750976564325,0.03587341308593779,-4.5776367187144815e-05,0.0020599365234375082
-0.302520751953125,0.099029541015625,0.081878662109375,0.0399169921875,0.014862060546875,0.005706787109375
-0.2625427246093738,0.15151977539062594,0.13539123535156355,0.03668212890624994,0.032333374023437826,0.011138916015625068

-0.193023681640625,0.143798828125,0.078948974609375,0.004058837890625,-0.015167236328125,-0.0086669921875
-0.18038940429687464,0.16143798828125056,0.08018493652343725,-0.0021972656249999866,-0.010253906249999927,-0.0054931640624999644
-0.166351318359375,0.16815185546875,0.066619873046875,0.00140380859375,-0.012939453125,-0.00408935546875
-0.1573638916015625,0.1739501953125,0.0481414794921875,-0.0011138916015625,-0.0157928466796875,-0.001312255859375
-0.1683654785156264,0.1764526367187496,0.02041625976562409,-0.006103515624999903,-0.01782226562500028,0.003906250000000046
-0.1870269775390625,0.205596923828125,0.0149993896484375,-0.0054473876953125,-0.0211334228515625,0.004669189453125
-0.21124267578125,0.21942138671875,0.002716064453125,-0.008056640625,-0.02166748046875,0.004638671875
-0.2914886474609375,0.1802825927734375,0.0476531982421875,-0.0070648193359375,-0.021453857421875,0.006103515625
-0.253509521484375,0.299285888671875,0.01849365234375,0.0087890625,-0.008026123046875,0.007110595703125
-0.30407714843750455,0.19927978515624156,0.047744750976564325,0.03587341308593779,-4.5776367187144815e-05,0.0020599365234375082
-0.302520751953125,0.099029541015625,0.081878662109375,0.0399169921875,0.014862060546875,0.005706787109375
-0.2625427246093738,0.15151977539062594,0.13539123535156355,0.03668212890624994,0.032333374023437826,0.011138916015625068
-0.174407958984375,0.191070556640625,0.165679931640625,0.03607177734375,0.049835205078125,0.01361083984375
-0.125030517578125,0.2142333984375,0.1604156494140625,0.04095458984375,0.0608673095703125,0.003631591796875
-0.1375122070312523,0.24114990234374886,0.02197265624999549,0.04058837890624967,0.05844116210937426,-0.018249511718750267
-0.1872406005859375,0.21160888671875,-0.0836181640625,0.0377655029296875,0.03289794921875,-0.0247802734375
-0.21368408203125,0.199981689453125,0.028961181640625,0.076324462890625,0.0098876953125,-0.034393310546875
-0.152801513671875,0.2513885498046875,0.11761474609375,0.0661163330078125,0.0119781494140625,-0.0507659912109375
-0.128936767578125,0.2205810546875,0.134246826171875,0.037933349609375,0.010101318359375,-0.065673828125
-0.18777465820312514,0.1553497314453103,0.056701660156249216,0.06765747070312583,0.004379272460937399,-0.06921386718750015

-0.253509521484375,0.299285888671875,0.01849365234375,0.0087890625,-0.008026123046875,0.007110595703125
-0.30407714843750455,0.19927978515624156,0.047744750976564325,0.03587341308593779,-4.5776367187144815e-05,0.0020599365234375082
-0.302520751953125,0.099029541015625,0.081878662109375,0.0399169921875,0.014862060546875,0.005706787109375
-0.2625427246093738,0.15151977539062594,0.13539123535156355,0.03668212890624994,0.032333374023437826,0.011138916015625068
-0.174407958984375,0.191070556640625,0.165679931640625,0.03607177734375,0.049835205078125,0.01361083984375
-0.125030517578125,0.2142333984375,0.1604156494140625,0.04095458984375,0.0608673095703125,0.003631591796875
-0.1375122070312523,0.24114990234374886,0.02197265624999549,0.04058837890624967,0.05844116210937426,-0.018249511718750267
-0.1872406005859375,0.21160888671875,-0.0836181640625,0.0377655029296875,0.03289794921875,-0.0247802734375
-0.21368408203125,0.199981689453125,0.028961181640625,0.076324462890625,0.0098876953125,-0.034393310546875
-0.152801513671875,0.2513885498046875,0.11761474609375,0.0661163330078125,0.0119781494140625,-0.0507659912109375
-0.128936767578125,0.2205810546875,0.134246826171875,0.037933349609375,0.010101318359375,-0.065673828125
-0.18777465820312514,0.1553497314453103,0.056701660156249216,0.06765747070312583,0.004379272460937399,-0.06921386718750015
-0.176361083984375,0.114013671875,0.087799072265625,0.076385498046875,0.0087890625,-0.0684814453125
-0.14506530761718703,0.1252899169921881,0.11540222167968772,0.06542968749999978,0.013534545898437556,-0.06369018554687494
-0.127197265625,0.1798095703125,0.128448486328125,0.059295654296875,0.0185546875,-0.0618896484375
-0.095123291015625,0.1703033447265625,0.123321533203125,0.059722900390625,0.0191192626953125,-0.0615997314453125
-0.12295532226562503,0.12145996093750039,0.12579345703124986,0.059722900390624854,0.014739990234375009,-0.060699462890625035
-0.115509033203125,0.1328125,0.1343841552734375,0.0543975830078125,0.0140380859375,-0.061798095703125
-0.08221435546875,0.200347900390625,0.141357421875,0.047454833984375,0.01165771484375,-0.062469482421875
-0.06719970703125,0.0825958251953125,0.1083831787109375,0.04803466796875,-0.000885009765625,-0.0617828369140625

-0.21368408203125,0.199981689453125,0.028961181640625,0.076324462890625,0.0098876953125,-0.034393310546875
-0.152801513671875,0.2513885498046875,0.11761474609375,0.0661163330078125,0.0119781494140625,-0.0507659912109375
-0.128936767578125,0.2205810546875,0.134246826171875,0.037933349609375,0.010101318359375,-0.065673828125
-0.18777465820312514,0.1553497314453103,0.056701660156249216,0.06765747070312583,0.004379272460937399,-0.06921386718750015
-0.176361083984375,0.114013671875,0.087799072265625,0.076385498046875,0.0087890625,-0.0684814453125
-0.14506530761718703,0.1252899169921881,0.11540222167968772,0.06542968749999978,0.013534545898437556,-0.06369018554687494
-0.127197265625,0.1798095703125,0.128448486328125,0.059295654296875,0.0185546875,-0.0618896484375
-0.095123291015625,0.1703033447265625,0.123321533203125,0.059722900390625,0.0191192626953125,-0.0615997314453125
-0.12295532226562503,0.12145996093750039,0.12579345703124986,0.059722900390624854,0.014739990234375009,-0.060699462890625035
-0.115509033203125,0.1328125,0.1343841552734375,0.0543975830078125,0.0140380859375,-0.061798095703125
-0.08221435546875,0.200347900390625,0.141357421875,0.047454833984375,0.01165771484375,-0.062469482421875
-0.06719970703125,0.0825958251953125,0.1083831787109375,0.04803466796875,-0.000885009765625,-0.0617828369140625
-0.081024169921875,0.047119140625,0.1424560546875,0.04888916015625,-0.010772705078125,-0.05731201171875
-0.08200073242187522,0.02981567382812363,0.15460205078124914,0.03672790527343637,-0.007080078124999691,-0.04162597656249958
-0.0635986328125,0.008453369140625,0.14263916015625,0.0189208984375,-0.005035400390625,-0.036407470703125
-0.042816162109374875,0.043594360351563055,0.15481567382812514,0.004180908203124737,-0.004852294921874973,-0.03131103515624989
-0.0616455078125,0.061676025390625,0.156524658203125,-0.008697509765625,-0.00335693359375,-0.022613525390625
-0.058074951171875,0.0548095703125,0.1822509765625,-0.0071563720703125,-0.0056610107421875,-0.019989013671875
-0.023498535156249816,0.08251953125000072,0.22473144531250006,-0.007385253906250176,-0.008087158203125057,-0.017791748046874896
-0.032745361328125,0.0975341796875,0.2293548583984375,-0.013671875,-0.0109710693359375,-0.0146636962890625

-0.12295532226562503,0.12145996093750039,0.12579345703124986,0.059722900390624854,0.014739990234375009,-0.060699462890625035
-0.115509033203125,0.1328125,0.1343841552734375,0.0543975830078125,0.0140380859375,-0.061798095703125
-0.08221435546875,0.200347900390625,0.141357421875,0.047454833984375,0.01165771484375,-0.062469482421875
-0.06719970703125,0.0825958251953125,0.1083831787109375,0.04803466796875,-0.000885009765625,-0.0617828369140625
-0.081024169921875,0.047119140625,0.1424560546875,0.04888916015625,-0.010772705078125,-0.05731201171875
-0.08200073242187522,0.02981567382812363,0.15460205078124914,0.03672790527343637,-0.007080078124999691,-0.04162597656249958
-0.0635986328125,0.008453369140625,0.14263916015625,0.0189208984375,-0.005035400390625,-0.036407470703125
-0.042816162109374875,0.043594360351563055,0.15481567382812514,0.004180908203124737,-0.004852294921874973,-0.03131103515624989
-0.0616455078125,0.061676025390625,0.156524658203125,-0.008697509765625,-0.00335693359375,-0.022613525390625
-0.058074951171875,0.0548095703125,0.1822509765625,-0.0071563720703125,-0.0056610107421875,-0.019989013671875
-0.023498535156249816,0.08251953125000072,0.22473144531250006,-0.007385253906250176,-0.008087158203125057,-0.017791748046874896
-0.032745361328125,0.0975341796875,0.2293548583984375,-0.013671875,-0.0109710693359375,-0.0146636962890625
-0.059906005859375,0.0885009765625,0.258056640625,-0.017059326171875,-0.01666259765625,-0.01226806640625
-0.043609619140625,0.0787200927734375,0.2444610595703125,-0.0250091552734375,-0.020904541015625,-0.008697509765625
-0.03802490234375,0.029693603515625,0.196502685546875,-0.032257080078125,-0.029266357421875,-0.0010986328125
-0.05059814453125395,0.10441589355470478,0.32151794433595704,-0.03695678710937526,-0.0420989990234375,0.020156860351563024
-0.198577880859375,0.024932861328125,0.117767333984375,-0.032684326171875,-0.033416748046875,0.01397705078125
-0.13737487792968586,-0.041732788085936764,0.16120910644531156,-0.02136230468750006,-0.03817749023437461,0.009170532226562585
-0.063079833984375,0.131195068359375,-0.008026123046875,-0.055084228515625,-0.0216064453125,0.017852783203125
-0.154937744140625,0.252899169921875,0.083892822265625,-0.047515869140625,-0.0251922607421875,0.018951416015625

-0.0616455078125,0.061676025390625,0.156524658203125,-0.008697509765625,-0.00335693359375,-0.022613525390625
-0.058074951171875,0.0548095703125,0.1822509765625,-0.0071563720703125,-0.0056610107421875,-0.019989013671875
-0.023498535156249816,0.08251953125000072,0.22473144531250006,-0.007385253906250176,-0.008087158203125057,-0.017791748046874896
-0.032745361328125,0.0975341796875,0.2293548583984375,-0.013671875,-0.0109710693359375,-0.0146636962890625
-0.059906005859375,0.0885009765625,0.258056640625,-0.017059326171875,-0.01666259765625,-0.01226806640625
-0.043609619140625,0.0787200927734375,0.2444610595703125,-0.0250091552734375,-0.020904541015625,-0.008697509765625
-0.03802490234375,0.029693603515625,0.196502685546875,-0.032257080078125,-0.029266357421875,-0.0010986328125
-0.05059814453125395,0.10441589355470478,0.32151794433595704,-0.03695678710937526,-0.0420989990234375,0.020156860351563024
-0.198577880859375,0.024932861328125,0.117767333984375,-0.032684326171875,-0.033416748046875,0.01397705078125
-0.13737487792968586,-0.041732788085936764,0.16120910644531156,-0.02136230468750006,-0.03817749023437461,0.009170532226562585
-0.063079833984375,0.131195068359375,-0.008026123046875,-0.055084228515625,-0.0216064453125,0.017852783203125
-0.154937744140625,0.252899169921875,0.083892822265625,-0.047515869140625,-0.0251922607421875,0.018951416015625
-0.22235107421874753,0.2505493164062472,0.11227416992187683,-0.03405761718749944,-0.025268554687499986,0.00701904296874994
-0.1672821044921875,0.159942626953125,0.1363677978515625,-0.0153961181640625,-0.0301055908203125,0.0050506591796875
-0.154449462890625,0.058319091796875,0.1142578125,-0.01348876953125,-0.0355224609375,0.00836181640625
-0.1609649658203125,0.0641021728515625,0.0869140625,-0.0288848876953125,-0.0351409912109375,0.0183563232421875
-0.168487548828125,0.149627685546875,0.038543701171875,-0.052215576171875,-0.0223388671875,0.028778076171875
-0.1529235839843742,0.17254638671875103,0.07217407226562574,-0.03977966308593719,-0.017623901367187594,0.022460937499999837
-0.133544921875,0.194244384765625,0.08978271484375,-0.02508544921875,-0.023773193359375,0.02093505859375
-0.10273742675781276,0.1897888183593741,0.11152648925781262,-0.014617919921874905,-0.028930664062500118,0.0197296142578124

-0.198577880859375,0.024932861328125,0.117767333984375,-0.032684326171875,-0.033416748046875,0.01397705078125
-0.13737487792968586,-0.041732788085936764,0.16120910644531156,-0.02136230468750006,-0.03817749023437461,0.009170532226562585
-0.063079833984375,0.131195068359375,-0.008026123046875,-0.055084228515625,-0.0216064453125,0.017852783203125
-0.154937744140625,0.252899169921875,0.083892822265625,-0.047515869140625,-0.0251922607421875,0.018951416015625
-0.22235107421874753,0.2505493164062472,0.11227416992187683,-0.03405761718749944,-0.025268554687499986,0.00701904296874994
-0.1672821044921875,0.159942626953125,0.1363677978515625,-0.0153961181640625,-0.0301055908203125,0.0050506591796875
-0.154449462890625,0.058319091796875,0.1142578125,-0.01348876953125,-0.0355224609375,0.00836181640625
-0.1609649658203125,0.0641021728515625,0.0869140625,-0.0288848876953125,-0.0351409912109375,0.0183563232421875
-0.168487548828125,0.149627685546875,0.038543701171875,-0.052215576171875,-0.0223388671875,0.028778076171875
-0.1529235839843742,0.17254638671875103,0.07217407226562574,-0.03977966308593719,-0.017623901367187594,0.022460937499999837
-0.133544921875,0.194244384765625,0.08978271484375,-0.02508544921875,-0.023773193359375,0.02093505859375
-0.10273742675781276,0.1897888183593741,0.11152648925781262,-0.014617919921874905,-0.028930664062500118,0.0197296142578124
-0.113739013671875,0.151031494140625,0.10113525390625,-0.008453369140625,-0.0345458984375,0.011199951171875
-0.150054931640625,0.1766815185546875,0.0699310302734375,-0.0034637451171875,-0.04412841796875,0.0016937255859375
-0.17242431640624922,0.16888427734374964,0.064483642578125,-0.004119873046874656,-0.030487060546874712,-0.005767822265624949
-0.1859283447265625,0.130462646484375,0.0880279541015625,-0.0006561279296875,-0.022186279296875,-0.0063323974609375
-0.235260009765625,0.1951904296875,0.08502197265625,-0.010223388671875,0.00408935546875,-0.0130615234375
-0.2412567138671875,0.1717681884765625,0.02813720703125,-0.0229339599609375,0.0121307373046875,-0.00970458984375
-0.269622802734375,0.20654296875,-0.04302978515625,-0.0308837890625,0.012420654296875,0.004150390625
-0.21855163574218656,0.20266723632812655,0.04661560058594191,-0.009735107421874275,-0.005477905273438175,0.005142211914062329

-0.168487548828125,0.149627685546875,0.038543701171875,-0.052215576171875,-0.0223388671875,0.028778076171875
-0.1529235839843742,0.17254638671875103,0.07217407226562574,-0.03977966308593719,-0.017623901367187594,0.022460937499999837
-0.133544921875,0.194244384765625,0.08978271484375,-0.02508544921875,-0.023773193359375,0.02093505859375
-0.10273742675781276,0.1897888183593741,0.11152648925781262,-0.014617919921874905,-0.028930664062500118,0.0197296142578124
-0.113739013671875,0.151031494140625,0.10113525390625,-0.008453369140625,-0.0345458984375,0.011199951171875
-0.150054931640625,0.1766815185546875,0.0699310302734375,-0.0034637451171875,-0.04412841796875,0.0016937255859375
-0.17242431640624922,0.16888427734374964,0.064483642578125,-0.004119873046874656,-0.030487060546874712,-0.005767822265624949
-0.1859283447265625,0.130462646484375,0.0880279541015625,-0.0006561279296875,-0.022186279296875,-0.0063323974609375
-0.235260009765625,0.1951904296875,0.08502197265625,-0.010223388671875,0.00408935546875,-0.0130615234375
-0.2412567138671875,0.1717681884765625,0.02813720703125,-0.0229339599609375,0.0121307373046875,-0.00970458984375
-0.269622802734375,0.20654296875,-0.04302978515625,-0.0308837890625,0.012420654296875,0.004150390625
-0.21855163574218656,0.20266723632812655,0.04661560058594191,-0.009735107421874275,-0.005477905273438175,0.005142211914062329
-0.22650146484375,0.213104248046875,0.1396484375,-0.01806640625,-0.010406494140625,0.004180908203125
-0.2770233154296885,0.18890380859375036,0.14721679687499986,-0.014205932617187281,-0.0014648437499997966,0.005310058593750076
-0.30535888671875,0.204833984375,0.125030517578125,-0.00103759765625,0.0174560546875,0.009613037109375
-0.28369140625,0.2066192626953125,0.1291046142578125,0.014312744140625,0.0582427978515625,0.007293701171875
-0.22015380859373987,0.19451904296876005,0.1553649902343649,0.033111572265624056,0.09591674804687551,-0.01382446289062571
-0.1557159423828125,0.28179931640625,0.01849365234375,0.0277557373046875,0.0869598388671875,-0.025634765625
-0.17022705078125,0.304046630859375,-0.007781982421875,0.055328369140625,0.05413818359375,-0.03466796875
-0.1649627685546875,0.0770111083984375,-0.0025787353515625,0.0794830322265625,0.0037994384765625,-0.0585784912109375

-0.235260009765625,0.1951904296875,0.08502197265625,-0.010223388671875,0.00408935546875,-0.0130615234375
-0.2412567138671875,0.1717681884765625,0.02813720703125,-0.0229339599609375,0.0121307373046875,-0.00970458984375
-0.269622802734375,0.20654296875,-0.04302978515625,-0.0308837890625,0.012420654296875,0.004150390625
-0.21855163574218656,0.20266723632812655,0.04661560058594191,-0.009735107421874275,-0.005477905273438175,0.005142211914062329
-0.22650146484375,0.213104248046875,0.1396484375,-0.01806640625,-0.010406494140625,0.004180908203125
-0.2770233154296885,0.18890380859375036,0.14721679687499986,-0.014205932617187281,-0.0014648437499997966,0.005310058593750076
-0.30535888671875,0.204833984375,0.125030517578125,-0.00103759765625,0.0174560546875,0.009613037109375
-0.28369140625,0.2066192626953125,0.1291046142578125,0.014312744140625,0.0582427978515625,0.007293701171875
-0.22015380859373987,0.19451904296876005,0.1553649902343649,0.033111572265624056,0.09591674804687551,-0.01382446289062571
-0.1557159423828125,0.28179931640625,0.01849365234375,0.0277557373046875,0.0869598388671875,-0.025634765625
-0.17022705078125,0.304046630859375,-0.007781982421875,0.055328369140625,0.05413818359375,-0.03466796875
-0.1649627685546875,0.0770111083984375,-0.0025787353515625,0.0794830322265625,0.0037994384765625,-0.0585784912109375
-0.163818359375,0.114959716796875,0.0789794921875,0.0655517578125,0.0030517578125,-0.054534912109375
-0.20838928222656175,0.15719604492187436,0.1830749511718737,0.07186889648437546,0.031845092773438305,-0.0526733398437497
-0.105621337890625,0.095428466796875,0.08990478515625,0.061248779296875,0.051727294921875,-0.039337158203125
-0.08283996582031163,0.06645202636718799,0.09094238281250099,0.03861999511718753,0.04696655273437485,-0.03196716308593754
-0.046722412109375,0.0919189453125,0.109832763671875,0.039154052734375,0.034149169921875,-0.032806396484375
-0.052932739257812875,0.11869812011718796,0.10522460937499953,0.04193115234375008,0.02409362792968677,-0.021774291992186754
-0.067840576171875,0.052490234375,0.1060791015625,0.032440185546875,0.0032958984375,-0.005859375
-0.060424804687500236,-0.02250671386718873,0.12376403808593733,0.017669677734374275,-0.005615234375000347,-0.003448486328124897

-0.22015380859373987,0.19451904296876005,0.1553649902343649,0.033111572265624056,0.09591674804687551,-0.01382446289062571
-0.1557159423828125,0.28179931640625,0.01849365234375,0.0277557373046875,0.0869598388671875,-0.025634765625
-0.17022705078125,0.304046630859375,-0.007781982421875,0.055328369140625,0.05413818359375,-0.03466796875
-0.1649627685546875,0.0770111083984375,-0.0025787353515625,0.0794830322265625,0.0037994384765625,-0.0585784912109375
-0.163818359375,0.114959716796875,0.0789794921875,0.0655517578125,0.0030517578125,-0.054534912109375
-0.20838928222656175,0.15719604492187436,0.1830749511718737,0.07186889648437546,0.031845092773438305,-0.0526733398437497
-0.105621337890625,0.095428466796875,0.08990478515625,0.061248779296875,0.051727294921875,-0.039337158203125
-0.08283996582031163,0.06645202636718799,0.09094238281250099,0.03861999511718753,0.04696655273437485,-0.03196716308593754
-0.046722412109375,0.0919189453125,0.109832763671875,0.039154052734375,0.034149169921875,-0.032806396484375
-0.052932739257812875,0.11869812011718796,0.10522460937499953,0.04193115234375008,0.02409362792968677,-0.021774291992186754
-0.067840576171875,0.052490234375,0.1060791015625,0.032440185546875,0.0032958984375,-0.005859375
-0.060424804687500236,-0.02250671386718873,0.12376403808593733,0.017669677734374275,-0.005615234375000347,-0.003448486328124897
-0.050079345703125,-0.006011962890625,0.147735595703125,-0.020721435546875,-0.019012451171875,0.006195068359375
-0.053298950195312174,0.07130432128906118,0.18684387207031117,-0.044891357421874216,-0.02714538574218716,0.017242431640624556
-0.07421875,0.121185302734375,0.20538330078125,-0.06549072265625,-0.038421630859375,0.02923583984375
-0.09941101074218808,0.13406372070312372,0.11123657226562227,-0.08821105957031324,-0.043563842773437646,0.03570556640625
-0.5484313964843331,0.360565185546969,0.6214599609374236,-0.011199951171875699,-0.04141235351562087,0.032928466796871496
-0.11190795898437625,0.0687103271484697,0.1028747558593679,-0.03085327148437393,-0.014541625976562075,-0.010818481445312274
-0.02545166015625,-0.184967041015625,0.059906005859375,-0.034423828125,-0.015655517578125,-0.002197265625
-0.03302001953125647,-0.08360290527343095,-0.04089355468749614,-0.03263854980468738,-0.01847839355468791,0.022994995117188458

-0.046722412109375,0.0919189453125,0.109832763671875,0.039154052734375,0.034149169921875,-0.032806396484375
-0.052932739257812875,0.11869812011718796,0.10522460937499953,0.04193115234375008,0.02409362792968677,-0.021774291992186754
-0.067840576171875,0.052490234375,0.1060791015625,0.032440185546875,0.0032958984375,-0.005859375
-0.060424804687500236,-0.02250671386718873,0.12376403808593733,0.017669677734374275,-0.005615234375000347,-0.003448486328124897
-0.050079345703125,-0.006011962890625,0.147735595703125,-0.020721435546875,-0.019012451171875,0.006195068359375
-0.053298950195312174,0.07130432128906118,0.18684387207031117,-0.044891357421874216,-0.02714538574218716,0.017242431640624556
-0.07421875,0.121185302734375,0.20538330078125,-0.06549072265625,-0.038421630859375,0.02923583984375
-0.09941101074218808,0.13406372070312372,0.11123657226562227,-0.08821105957031324,-0.043563842773437646,0.03570556640625
-0.5484313964843331,0.360565185546969,0.6214599609374236,-0.011199951171875699,-0.04141235351562087,0.032928466796871496
-0.11190795898437625,0.0687103271484697,0.1028747558593679,-0.03085327148437393,-0.014541625976562075,-0.010818481445312274
-0.02545166015625,-0.184967041015625,0.059906005859375,-0.034423828125,-0.015655517578125,-0.002197265625
-0.03302001953125647,-0.08360290527343095,-0.04089355468749614,-0.03263854980468738,-0.01847839355468791,0.022994995117188458
-0.190399169921875,0.17645263671875,0.05572509765625,-0.042938232421875,-0.020751953125,0.049835205078125
-0.2998657226562432,0.4470520019531234,0.035614013671869366,-0.04876708984374955,-0.019424438476561924,0.04069519042968597
-0.120361328125,0.18560791015625,0.10980224609375,-0.02569580078125,-0.020660400390625,0.002655029296875
-0.09776306152343647,0.10719299316406239,0.06390380859375064,-0.013473510742187497,-0.037933349609374736,0.011199951171874615
-0.151153564453125,0.107177734375,0.03167724609375,-0.027801513671875,-0.02423095703125,0.02142333984375
-0.1877746582031238,0.11930847167968762,0.04902648925781412,-0.019592285156249382,-0.014953613281249707,0.023147583007812583
-0.14859008789062272,0.17077636718750253,0.07846069335937428,0.0011901855468753307,-0.025451660156250954,0.009490966796873591
-0.13804626464843692,0.18936157226562408,0.07299804687500024,0.008331298828124691,-0.0309143066406253,-0.0037994384765623022

-0.5484313964843331,0.360565185546969,0.6214599609374236,-0.011199951171875699,-0.04141235351562087,0.032928466796871496
-0.11190795898437625,0.0687103271484697,0.1028747558593679,-0.03085327148437393,-0.014541625976562075,-0.010818481445312274
-0.02545166015625,-0.184967041015625,0.059906005859375,-0.034423828125,-0.015655517578125,-0.002197265625
-0.03302001953125647,-0.08360290527343095,-0.04089355468749614,-0.03263854980468738,-0.01847839355468791,0.022994995117188458
-0.190399169921875,0.17645263671875,0.05572509765625,-0.042938232421875,-0.020751953125,0.049835205078125
-0.2998657226562432,0.4470520019531234,0.035614013671869366,-0.04876708984374955,-0.019424438476561924,0.04069519042968597
-0.120361328125,0.18560791015625,0.10980224609375,-0.02569580078125,-0.020660400390625,0.002655029296875
-0.09776306152343647,0.10719299316406239,0.06390380859375064,-0.013473510742187497,-0.037933349609374736,0.011199951171874615
-0.151153564453125,0.107177734375,0.03167724609375,-0.027801513671875,-0.02423095703125,0.02142333984375
-0.1877746582031238,0.11930847167968762,0.04902648925781412,-0.019592285156249382,-0.014953613281249707,0.023147583007812583
-0.14859008789062272,0.17077636718750253,0.07846069335937428,0.0011901855468753307,-0.025451660156250954,0.009490966796873591
-0.13804626464843692,0.18936157226562408,0.07299804687500024,0.008331298828124691,-0.0309143066406253,-0.0037994384765623022
-0.161865234375,0.19482421875,0.064910888671875,0.019866943359375,-0.022705078125,-0.01092529296875
-0.16958618164062766,0.1806488037109365,0.08158874511718939,0.02432250976562481,-0.027862548828125108,-0.015899658203125142
-0.1920166015625,0.16162109375,0.109039306640625,0.013763427734375,-0.020416259765625,-0.014190673828125
-0.23440551757812628,0.11790466308593806,0.09921264648437499,-0.002105712890625423,-0.008819580078124556,-0.01029968261718727
-0.209014892578125,0.16912841796875,0.056976318359375,-0.02716064453125,0.009368896484375,-0.003326416015625
-0.19631958007812395,0.2226409912109342,0.021255493164060436,-0.012771606445313116,-0.00016784667968751897,0.006225585937499755
-0.258087158203125,0.258544921875,0.056182861328125,-0.0074462890625,-0.00103759765625,0.010650634765625
-0.28684997558593667,0.20123291015624803,0.11091613769531504,-0.003646850585937199,-0.0019531249999999946,0.009033203124999821

-0.151153564453125,0.107177734375,0.03167724609375,-0.027801513671875,-0.02423095703125,0.02142333984375
-0.1877746582031238,0.11930847167968762,0.04902648925781412,-0.019592285156249382,-0.014953613281249707,0.023147583007812583
-0.14859008789062272,0.17077636718750253,0.07846069335937428,0.0011901855468753307,-0.025451660156250954,0.009490966796873591
-0.13804626464843692,0.18936157226562408,0.07299804687500024,0.008331298828124691,-0.0309143066406253,-0.0037994384765623022
-0.161865234375,0.19482421875,0.064910888671875,0.019866943359375,-0.022705078125,-0.01092529296875
-0.16958618164062766,0.1806488037109365,0.08158874511718939,0.02432250976562481,-0.027862548828125108,-0.015899658203125142
-0.1920166015625,0.16162109375,0.109039306640625,0.013763427734375,-0.020416259765625,-0.014190673828125
-0.23440551757812628,0.11790466308593806,0.09921264648437499,-0.002105712890625423,-0.008819580078124556,-0.01029968261718727
-0.209014892578125,0.16912841796875,0.056976318359375,-0.02716064453125,0.009368896484375,-0.003326416015625
-0.19631958007812395,0.2226409912109342,0.021255493164060436,-0.012771606445313116,-0.00016784667968751897,0.006225585937499755
-0.258087158203125,0.258544921875,0.056182861328125,-0.0074462890625,-0.00103759765625,0.010650634765625
-0.28684997558593667,0.20123291015624803,0.11091613769531504,-0.003646850585937199,-0.0019531249999999946,0.009033203124999821
-0.261871337890625,0.23040771484375,0.155517578125,0.001251220703125,-0.001312255859375,0.0048828125
-0.26495361328124867,0.2887725830078143,0.11787414550781383,-0.00457763671874994,0.008697509765624533,0.006027221679687519
-0.301239013671875,0.21575927734375,0.094451904296875,0.00299072265625,0.02825927734375,0.006072998046875
-0.28814697265625033,0.10984802246093142,0.10130310058593854,0.013275146484374816,0.039932250976562694,0.0015563964843746257
-0.1859130859375,0.1851806640625,0.126220703125,0.001495361328125,0.088897705078125,-0.009002685546875
-0.13523864746094327,0.253662109375005,0.03689575195311988,0.023254394531249924,0.06463623046874796,-0.028900146484375715
-0.16033935546875,0.257598876953125,-0.0484619140625,0.06207275390625,0.015716552734375,-0.048797607421875
-0.24655151367187012,0.06274414062499786,0.08067321777342913,0.06147766113281297,0.009796142578123845,-0.047424316406250056

-0.209014892578125,0.16912841796875,0.056976318359375,-0.02716064453125,0.009368896484375,-0.003326416015625
-0.19631958007812395,0.2226409912109342,0.021255493164060436,-0.012771606445313116,-0.00016784667968751897,0.006225585937499755
-0.258087158203125,0.258544921875,0.056182861328125,-0.0074462890625,-0.00103759765625,0.010650634765625
-0.28684997558593667,0.20123291015624803,0.11091613769531504,-0.003646850585937199,-0.0019531249999999946,0.009033203124999821
-0.261871337890625,0.23040771484375,0.155517578125,0.001251220703125,-0.001312255859375,0.0048828125
-0.26495361328124867,0.2887725830078143,0.11787414550781383,-0.00457763671874994,0.008697509765624533,0.006027221679687519
-0.301239013671875,0.21575927734375,0.094451904296875,0.00299072265625,0.02825927734375,0.006072998046875
-0.28814697265625033,0.10984802246093142,0.10130310058593854,0.013275146484374816,0.039932250976562694,0.0015563964843746257
-0.1859130859375,0.1851806640625,0.126220703125,0.001495361328125,0.088897705078125,-0.009002685546875
-0.13523864746094327,0.253662109375005,0.03689575195311988,0.023254394531249924,0.06463623046874796,-0.028900146484375715
-0.16033935546875,0.257598876953125,-0.0484619140625,0.06207275390625,0.015716552734375,-0.048797607421875
-0.24655151367187012,0.06274414062499786,0.08067321777342913,0.06147766113281297,0.009796142578123845,-0.047424316406250056
-0.17938232421875,0.075225830078125,0.122406005859375,0.06536865234375,0.056304931640625,-0.04644775390625
-0.0562744140624986,0.10502624511718786,0.10627746582031408,0.03022766113281217,0.06346130371093739,-0.029876708984374757
-0.04022216796875,0.106048583984375,0.1231689453125,0.04705810546875,0.052825927734375,-0.02789306640625
-0.035110473632812916,0.08686828613281461,0.12503051757812458,0.05477905273437483,0.04325866699218794,-0.02563476562500019
-0.061859130859375,0.050048828125,0.121368408203125,0.052764892578125,0.033050537109375,-0.00689697265625
-0.02984619140624845,0.006271362304686256,0.10345458984375006,0.02790832519531184,0.01290893554687455,0.005950927734375212
-0.024139404296875,-0.01434326171875,0.10003662109375,-9.1552734375e-05,-0.004180908203125,0.011260986328125
-0.018463134765623952,0.01916503906250081,0.09707641601562525,-0.03549194335937611,-0.026565551757812812,0.012817382812500184

-0.1859130859375,0.1851806640625,0.126220703125,0.001495361328125,0.088897705078125,-0.009002685546875
-0.13523864746094327,0.253662109375005,0.03689575195311988,0.023254394531249924,0.06463623046874796,-0.028900146484375715
-0.16033935546875,0.257598876953125,-0.0484619140625,0.06207275390625,0.015716552734375,-0.048797607421875
-0.24655151367187012,0.06274414062499786,0.08067321777342913,0.06147766113281297,0.009796142578123845,-0.047424316406250056
-0.17938232421875,0.075225830078125,0.122406005859375,0.06536865234375,0.056304931640625,-0.04644775390625
-0.0562744140624986,0.10502624511718786,0.10627746582031408,0.03022766113281217,0.06346130371093739,-0.029876708984374757
-0.04022216796875,0.106048583984375,0.1231689453125,0.04705810546875,0.052825927734375,-0.02789306640625
-0.035110473632812916,0.08686828613281461,0.12503051757812458,0.05477905273437483,0.04325866699218794,-0.02563476562500019
-0.061859130859375,0.050048828125,0.121368408203125,0.052764892578125,0.033050537109375,-0.00689697265625
-0.02984619140624845,0.006271362304686256,0.10345458984375006,0.02790832519531184,0.01290893554687455,0.005950927734375212
-0.024139404296875,-0.01434326171875,0.10003662109375,-9.1552734375e-05,-0.004180908203125,0.011260986328125
-0.018463134765623952,0.01916503906250081,0.09707641601562525,-0.03549194335937611,-0.026565551757812812,0.012817382812500184
-0.02227783203125,0.06024169921875,0.089263916015625,-0.0712890625,-0.03680419921875,0.0220947265625
-0.03253173828125103,0.10986328124999925,0.08087158203125114,-0.10516357421874828,-0.045837402343749466,0.03785705566406157
-0.3717041015625,0.2427978515625,0.295562744140625,-0.07177734375,-0.05755615234375,0.0467529296875
-0.6405639648437379,0.755554199218757,0.460052490234368,-0.027709960937497925,-0.054016113281248605,0.02955627441406055
-0.153350830078125,0.20526123046875,0.056396484375,-0.015533447265625,-0.008514404296875,-0.023406982421875
-0.01826477050782136,-0.1841583251953204,0.04240417480469924,-0.028167724609373248,-0.018066406250000378,0.0028076171874985966
-0.08551025390625,-0.032470703125,0.036163330078125,-0.028594970703125,-0.01947021484375,0.044708251953125
-0.3392639160156305,0.2742919921875083,0.0746154785156267,-0.0553283691406256,-0.0263061523437502,0.06250000000000017

-0.061859130859375,0.050048828125,0.121368408203125,0.052764892578125,0.033050537109375,-0.00689697265625
-0.02984619140624845,0.006271362304686256,0.10345458984375006,0.02790832519531184,0.01290893554687455,0.005950927734375212
-0.024139404296875,-0.01434326171875,0.10003662109375,-9.1552734375e-05,-0.004180908203125,0.011260986328125
-0.018463134765623952,0.01916503906250081,0.09707641601562525,-0.03549194335937611,-0.026565551757812812,0.012817382812500184
-0.02227783203125,0.06024169921875,0.089263916015625,-0.0712890625,-0.03680419921875,0.0220947265625
-0.03253173828125103,0.10986328124999925,0.08087158203125114,-0.10516357421874828,-0.045837402343749466,0.03785705566406157
-0.3717041015625,0.2427978515625,0.295562744140625,-0.07177734375,-0.05755615234375,0.0467529296875
-0.6405639648437379,0.755554199218757,0.460052490234368,-0.027709960937497925,-0.054016113281248605,0.02955627441406055
-0.153350830078125,0.20526123046875,0.056396484375,-0.015533447265625,-0.008514404296875,-0.023406982421875
-0.01826477050782136,-0.1841583251953204,0.04240417480469924,-0.028167724609373248,-0.018066406250000378,0.0028076171874985966
-0.08551025390625,-0.032470703125,0.036163330078125,-0.028594970703125,-0.01947021484375,0.044708251953125
-0.3392639160156305,0.2742919921875083,0.0746154785156267,-0.0553283691406256,-0.0263061523437502,0.06250000000000017
-0.244415283203125,0.444000244140625,0.02716064453125,-0.04351806640625,-0.01361083984375,0.038818359375
-0.08355712890624933,0.20748901367186776,0.10279846191406179,-0.027130126953124604,-0.024856567382813125,0.008102416992187578
-0.074493408203125,0.132476806640625,0.06591796875,-0.01458740234375,-0.04083251953125,0.013916015625
-0.11624145507812012,0.13288879394531347,0.04687500000000219,-0.017227172851562965,-0.042083740234375604,0.020248413085937236
-0.187469482421875,0.103759765625,0.063385009765625,-0.00506591796875,-0.031036376953125,0.005615234375
-0.18658447265625278,0.1189422607421876,0.09988403320312766,0.0005187988281244904,-0.029373168945312063,0.0007324218749996205
-0.192108154296875,0.152313232421875,0.086883544921875,-0.00311279296875,-0.01422119140625,-0.00250244140625
-0.18319702148437222,0.18089294433593966,0.0873565673828136,-0.009887695312499636,0.004119873046874875,-0.0035247802734374866

-0.153350830078125,0.20526123046875,0.056396484375,-0.015533447265625,-0.008514404296875,-0.023406982421875
-0.01826477050782136,-0.1841583251953204,0.04240417480469924,-0.028167724609373248,-0.018066406250000378,0.0028076171874985966
-0.08551025390625,-0.032470703125,0.036163330078125,-0.028594970703125,-0.01947021484375,0.044708251953125
-0.3392639160156305,0.2742919921875083,0.0746154785156267,-0.0553283691406256,-0.0263061523437502,0.06250000000000017
-0.244415283203125,0.444000244140625,0.02716064453125,-0.04351806640625,-0.01361083984375,0.038818359375
-0.08355712890624933,0.20748901367186776,0.10279846191406179,-0.027130126953124604,-0.024856567382813125,0.008102416992187578
-0.074493408203125,0.132476806640625,0.06591796875,-0.01458740234375,-0.04083251953125,0.013916015625
-0.11624145507812012,0.13288879394531347,0.04687500000000219,-0.017227172851562965,-0.042083740234375604,0.020248413085937236
-0.187469482421875,0.103759765625,0.063385009765625,-0.00506591796875,-0.031036376953125,0.005615234375
-0.18658447265625278,0.1189422607421876,0.09988403320312766,0.0005187988281244904,-0.029373168945312063,0.0007324218749996205
-0.192108154296875,0.152313232421875,0.086883544921875,-0.00311279296875,-0.01422119140625,-0.00250244140625
-0.18319702148437222,0.18089294433593966,0.0873565673828136,-0.009887695312499636,0.004119873046874875,-0.0035247802734374866
-0.215423583984375,0.15850830078125,0.07421875,-0.02484130859375,0.014068603515625,-0.00054931640625
-0.24653625488281453,0.18959045410156308,0.058227539062498355,-0.034271240234375264,0.011138916015625016,0.003356933593750157
-0.233154296875,0.24169921875,0.012542724609375,-0.025848388671875,0.00506591796875,0.00830078125
-0.2516021728515643,0.24942016601562417,0.033752441406251624,-0.014221191406249913,-0.0063934326171880985,0.005935668945312226
-0.2875976562499979,0.2229003906249978,0.16329956054687386,-0.01284790039062224,0.007537841796879635,0.010803222656250597
-0.28747558593749867,0.17521667480468828,0.16090393066406197,0.009292602539062356,0.04928588867187422,0.011825561523437726
-0.29388427734375,0.175628662109375,0.188751220703125,0.00885009765625,0.063140869140625,-0.003082275390625
-0.14543151855468622,0.26092529296875244,0.08720397949218445,0.01811218261718736,0.10615539550781301,-0.01632690429687585

-0.187469482421875,0.103759765625,0.063385009765625,-0.00506591796875,-0.031036376953125,0.005615234375
-0.18658447265625278,0.1189422607421876,0.09988403320312766,0.0005187988281244904,-0.029373168945312063,0.0007324218749996205
-0.192108154296875,0.152313232421875,0.086883544921875,-0.00311279296875,-0.01422119140625,-0.00250244140625
-0.18319702148437222,0.18089294433593966,0.0873565673828136,-0.009887695312499636,0.004119873046874875,-0.0035247802734374866
-0.215423583984375,0.15850830078125,0.07421875,-0.02484130859375,0.014068603515625,-0.00054931640625
-0.24653625488281453,0.18959045410156308,0.058227539062498355,-0.034271240234375264,0.011138916015625016,0.003356933593750157
-0.233154296875,0.24169921875,0.012542724609375,-0.025848388671875,0.00506591796875,0.00830078125
-0.2516021728515643,0.24942016601562417,0.033752441406251624,-0.014221191406249913,-0.0063934326171880985,0.005935668945312226
-0.2875976562499979,0.2229003906249978,0.16329956054687386,-0.01284790039062224,0.007537841796879635,0.010803222656250597
-0.28747558593749867,0.17521667480468828,0.16090393066406197,0.009292602539062356,0.04928588867187422,0.011825561523437726
-0.29388427734375,0.175628662109375,0.188751220703125,0.00885009765625,0.063140869140625,-0.003082275390625
-0.14543151855468622,0.26092529296875244,0.08720397949218445,0.01811218261718736,0.10615539550781301,-0.01632690429687585
-0.19134521484375,0.256134033203125,0.013824462890625,0.00335693359375,0.10833740234375,-0.029632568359375
-0.19206237792968753,0.2949218750000036,-0.048309326171875284,0.016357421875002755,0.08259582519531078,-0.03607177734375038
-0.16033935546875,0.108123779296875,-0.066497802734375,0.080078125,0.0211181640625,-0.054962158203125
-0.17770385742187803,0.11442565917969993,0.14859008789064093,0.062271118164062014,0.007141113281251149,-0.054260253906250076
-0.174591064453125,0.074951171875,0.103057861328125,0.0791015625,0.051361083984375,-0.04034423828125
-0.11389160156249797,0.08782958984375015,0.09049987792968832,0.05177307128906158,0.056625366210937673,-0.02900695800781214
-0.05206298828124587,0.11102294921875486,0.12033081054687399,0.03723144531250021,0.054565429687499716,-0.026031494140625416
-0.027572631835936938,0.12889099121093997,0.09432983398437585,0.045684814453124487,0.048461914062500326,-0.03190612792968729

-0.2875976562499979,0.2229003906249978,0.16329956054687386,-0.01284790039062224,0.007537841796879635,0.010803222656250597
-0.28747558593749867,0.17521667480468828,0.16090393066406197,0.009292602539062356,0.04928588867187422,0.011825561523437726
-0.29388427734375,0.175628662109375,0.188751220703125,0.00885009765625,0.063140869140625,-0.003082275390625
-0.14543151855468622,0.26092529296875244,0.08720397949218445,0.01811218261718736,0.10615539550781301,-0.01632690429687585
-0.19134521484375,0.256134033203125,0.013824462890625,0.00335693359375,0.10833740234375,-0.029632568359375
-0.19206237792968753,0.2949218750000036,-0.048309326171875284,0.016357421875002755,0.08259582519531078,-0.03607177734375038
-0.16033935546875,0.108123779296875,-0.066497802734375,0.080078125,0.0211181640625,-0.054962158203125
-0.17770385742187803,0.11442565917969993,0.14859008789064093,0.062271118164062014,0.007141113281251149,-0.054260253906250076
-0.174591064453125,0.074951171875,0.103057861328125,0.0791015625,0.051361083984375,-0.04034423828125
-0.11389160156249797,0.08782958984375015,0.09049987792968832,0.05177307128906158,0.056625366210937673,-0.02900695800781214
-0.05206298828124587,0.11102294921875486,0.12033081054687399,0.03723144531250021,0.054565429687499716,-0.026031494140625416
-0.027572631835936938,0.12889099121093997,0.09432983398437585,0.045684814453124487,0.048461914062500326,-0.03190612792968729
-0.062774658203125,0.046722412109375,0.094818115234375,0.058197021484375,0.035308837890625,-0.035369873046875
-0.08306884765625036,0.018478393554687556,0.10664367675781303,0.06109619140624981,0.02659606933593735,-0.027618408203124546
-0.071624755859375,0.049957275390625,0.11602783203125,0.0428466796875,0.02215576171875,-0.008453369140625
-0.05148315429687586,0.06057739257812411,0.12744140625000022,0.029876708984374684,0.016845703124999722,-0.0017242431640624866
-0.043365478515625,-0.00677490234375,0.108978271484375,0.01300048828125,-0.009613037109375,0.00323486328125
-0.04447937011718747,0.01744079589843829,0.1923675537109393,-0.02433776855468863,-0.014480590820312481,0.009078979492187677
-0.027679443359375,0.056732177734375,0.236572265625,-0.0684814453125,-0.024810791015625,0.01507568359375
-0.01071166992187552,0.1538848876953131,0.14112854003905925,-0.0805053710937501,-0.03637695312500025,0.023574829101562823

-0.174591064453125,0.074951171875,0.103057861328125,0.0791015625,0.051361083984375,-0.04034423828125
-0.11389160156249797,0.08782958984375015,0.09049987792968832,0.05177307128906158,0.056625366210937673,-0.02900695800781214
-0.05206298828124587,0.11102294921875486,0.12033081054687399,0.03723144531250021,0.054565429687499716,-0.026031494140625416
-0.027572631835936938,0.12889099121093997,0.09432983398437585,0.045684814453124487,0.048461914062500326,-0.03190612792968729
-0.062774658203125,0.046722412109375,0.094818115234375,0.058197021484375,0.035308837890625,-0.035369873046875
-0.08306884765625036,0.018478393554687556,0.10664367675781303,0.06109619140624981,0.02659606933593735,-0.027618408203124546
-0.071624755859375,0.049957275390625,0.11602783203125,0.0428466796875,0.02215576171875,-0.008453369140625
-0.05148315429687586,0.06057739257812411,0.12744140625000022,0.029876708984374684,0.016845703124999722,-0.0017242431640624866
-0.043365478515625,-0.00677490234375,0.108978271484375,0.01300048828125,-0.009613037109375,0.00323486328125
-0.04447937011718747,0.01744079589843829,0.1923675537109393,-0.02433776855468863,-0.014480590820312481,0.009078979492187677
-0.027679443359375,0.056732177734375,0.236572265625,-0.0684814453125,-0.024810791015625,0.01507568359375
-0.01071166992187552,0.1538848876953131,0.14112854003905925,-0.0805053710937501,-0.03637695312500025,0.023574829101562823
-0.042694091796933994,0.10748291015625067,0.16708374023441902,-0.0494689941406214,-0.06188964843750013,0.03375244140624994
-0.6674194335937422,0.527893066406218,0.49794006347657255,-0.01820373535156257,-0.04690551757812606,0.036483764648437465
-0.164306640625,0.286712646484375,0.08038330078125,-0.0093994140625,-0.018157958984375,0.003692626953125
-0.060638427734369144,-0.13302612304687528,0.059310913085932865,-0.021408081054688013,-0.020797729492187157,-0.00857543945312468
-0.2293701171875,0.281494140625,0.108154296875,-0.054779052734375,-0.01934814453125,0.0377197265625
-0.22000122070311767,0.4338684082031231,0.07374572753905684,-0.030685424804686723,-0.03097534179687494,0.026214599609373605
-0.13055419921875,0.27130126953125,0.10150146484375,-0.022735595703125,-0.027496337890625,-0.003692626953125
-0.12294006347656324,0.16600036621093306,0.13600158691406086,-0.004180908203124279,-0.03164672851562544,-0.00038146972656225324

-0.043365478515625,-0.00677490234375,0.108978271484375,0.01300048828125,-0.009613037109375,0.00323486328125
-0.04447937011718747,0.01744079589843829,0.1923675537109393,-0.02433776855468863,-0.014480590820312481,0.009078979492187677
-0.027679443359375,0.056732177734375,0.236572265625,-0.0684814453125,-0.024810791015625,0.01507568359375
-0.01071166992187552,0.1538848876953131,0.14112854003905925,-0.0805053710937501,-0.03637695312500025,0.023574829101562823
-0.042694091796933994,0.10748291015625067,0.16708374023441902,-0.0494689941406214,-0.06188964843750013,0.03375244140624994
-0.6674194335937422,0.527893066406218,0.49794006347657255,-0.01820373535156257,-0.04690551757812606,0.036483764648437465
-0.164306640625,0.286712646484375,0.08038330078125,-0.0093994140625,-0.018157958984375,0.003692626953125
-0.060638427734369144,-0.13302612304687528,0.059310913085932865,-0.021408081054688013,-0.020797729492187157,-0.00857543945312468
-0.2293701171875,0.281494140625,0.108154296875,-0.054779052734375,-0.01934814453125,0.0377197265625
-0.22000122070311767,0.4338684082031231,0.07374572753905684,-0.030685424804686723,-0.03097534179687494,0.026214599609373605
-0.13055419921875,0.27130126953125,0.10150146484375,-0.022735595703125,-0.027496337890625,-0.003692626953125
-0.12294006347656324,0.16600036621093306,0.13600158691406086,-0.004180908203124279,-0.03164672851562544,-0.00038146972656225324
-0.143829345703125,0.10296630859375,0.092132568359375,0.015594482421875,-0.048553466796875,0.009735107421875
-0.169876098632813,0.0507202148437487,0.07551574707031092,0.00025939941406174366,-0.051025390624999736,0.017456054687500232
-0.1844177246093757,0.09622192382812962,0.0284423828125042,-0.015960693359374584,-0.04052734374999951,0.02648925781250006
-0.18862915039062572,0.1707763671874972,0.08111572265624864,-0.009872436523437823,-0.033996582031250125,0.019714355468750912
-0.127593994140625,0.153900146484375,0.09527587890625,-3.0517578125e-05,-0.04022216796875,-0.003265380859375
-0.12194824218750001,0.11772155761718928,0.09555053710937539,0.004287719726562292,-0.0388183593749997,-0.0023345947265624484
-0.173736572265625,0.142547607421875,0.107879638671875,-0.000335693359375,-0.028900146484375,-0.00494384765625
-0.1734466552734377,0.13183593750000044,0.10755920410156215,-0.00393676757812507,-0.021789550781249806,-0.007766723632812519

-0.2293701171875,0.281494140625,0.108154296875,-0.054779052734375,-0.01934814453125,0.0377197265625
-0.22000122070311767,0.4338684082031231,0.07374572753905684,-0.030685424804686723,-0.03097534179687494,0.026214599609373605
-0.13055419921875,0.27130126953125,0.10150146484375,-0.022735595703125,-0.027496337890625,-0.003692626953125
-0.12294006347656324,0.16600036621093306,0.13600158691406086,-0.004180908203124279,-0.03164672851562544,-0.00038146972656225324
-0.143829345703125,0.10296630859375,0.092132568359375,0.015594482421875,-0.048553466796875,0.009735107421875
-0.169876098632813,0.0507202148437487,0.07551574707031092,0.00025939941406174366,-0.051025390624999736,0.017456054687500232
-0.1844177246093757,0.09622192382812962,0.0284423828125042,-0.015960693359374584,-0.04052734374999951,0.02648925781250006
-0.18862915039062572,0.1707763671874972,0.08111572265624864,-0.009872436523437823,-0.033996582031250125,0.019714355468750912
-0.127593994140625,0.153900146484375,0.09527587890625,-3.0517578125e-05,-0.04022216796875,-0.003265380859375
-0.12194824218750001,0.11772155761718928,0.09555053710937539,0.004287719726562292,-0.0388183593749997,-0.0023345947265624484
-0.173736572265625,0.142547607421875,0.107879638671875,-0.000335693359375,-0.028900146484375,-0.00494384765625
-0.1734466552734377,0.13183593750000044,0.10755920410156215,-0.00393676757812507,-0.021789550781249806,-0.007766723632812519
-0.185333251953125,0.120330810546875,0.090850830078125,-0.012481689453125,-0.014495849609375,-0.006011962890625
-0.22183227539062444,0.16001892089844016,0.061004638671874695,-0.025360107421875305,-0.004211425781249643,0.0035247802734376327
-0.191436767578125,0.20086669921875,0.043548583984375,-0.02252197265625,-0.00128173828125,0.00665283203125
-0.2105102539062561,0.2346954345703106,0.0029296874999985793,-0.020629882812499875,-0.009338378906251145,0.010025024414062611
-0.26214599609375405,0.2093505859374973,0.10427856445312934,-0.002227783203125076,-0.028686523437499757,0.003936767578125228
-0.3167572021484363,0.2267456054687479,0.12339782714843964,-0.003082275390625027,-0.02066040039062551,0.008483886718749854
-0.3408203125,0.249176025390625,0.0557861328125,0.007171630859375,-0.0030517578125,0.007293701171875
-0.35429382324218545,0.15617370605467973,0.13981628417969375,0.027450561523438236,0.02168273925781451,0.012298583984374783

-0.127593994140625,0.153900146484375,0.09527587890625,-3.0517578125e-05,-0.04022216796875,-0.003265380859375
-0.12194824218750001,0.11772155761718928,0.09555053710937539,0.004287719726562292,-0.0388183593749997,-0.0023345947265624484
-0.173736572265625,0.142547607421875,0.107879638671875,-0.000335693359375,-0.028900146484375,-0.00494384765625
-0.1734466552734377,0.13183593750000044,0.10755920410156215,-0.00393676757812507,-0.021789550781249806,-0.007766723632812519
-0.185333251953125,0.120330810546875,0.090850830078125,-0.012481689453125,-0.014495849609375,-0.006011962890625
