acc.x,acc.y,acc.z,gyro.x,gyro.y,gyro.z
-0.218780517578125,0.11920166015625,0.02520751953125,-0.002044677734375,0.004119873046875,0.000244140625
-0.219390869140625,0.119293212890625,0.025115966796875,-0.002197265625,0.004241943359375,0.000213623046875
-0.219696044921875,0.11871337890625,0.025177001953125,-0.002227783203125,0.00433349609375,0.00018310546875
-0.219696044921875,0.11724853515625,0.023895263671875,-0.002166748046875,0.004638671875,0.000244140625
-0.219512939453125,0.11712646484375,0.023101806640625,-0.002288818359375,0.0048828125,0.00030517578125
-0.21881103515625,0.117279052734375,0.023193359375,-0.002197265625,0.005157470703125,0.00030517578125
-0.219024658203125,0.117462158203125,0.02301025390625,-0.00213623046875,0.00494384765625,0.000396728515625
-0.21905517578125,0.1175537109375,0.02374267578125,-0.00189208984375,0.00469970703125,0.000335693359375
-0.217742919921875,0.119903564453125,0.024078369140625,-0.001708984375,0.004913330078125,0.0003662109375
-0.217620849609375,0.120147705078125,0.025177001953125,-0.00225830078125,0.004913330078125,0.00054931640625
-0.2176513671875,0.120452880859375,0.02557373046875,-0.002349853515625,0.004974365234375,0.0006103515625
-0.217864990234375,0.120269775390625,0.02655029296875,-0.002166748046875,0.00439453125,0.000640869140625
-0.217010498046875,0.120513916015625,0.02764892578125,-0.001983642578125,0.004730224609375,0.000579833984375
-0.217010498046875,0.12060546875,0.026397705078125,-0.001861572265625,0.00482177734375,0.000518798828125
-0.2169189453125,0.12091064453125,0.025634765625,-0.001800537109375,0.0042724609375,0.00048828125
-0.21661376953125,0.12115478515625,0.0262451171875,-0.002227783203125,0.004150390625,0.0006103515625
-0.21697998046875,0.121490478515625,0.02740478515625,-0.002227783203125,0.004180908203125,0.000701904296875
-0.2166748046875,0.12237548828125,0.026519775390625,-0.002166748046875,0.00439453125,0.000640869140625
-0.217529296875,0.122100830078125,0.0263671875,-0.00213623046875,0.004180908203125,0.0006103515625
-0.217315673828125,0.1221923828125,0.0263671875,-0.001983642578125,0.00408935546875,0.000518798828125

-0.21624755859375,0.12200927734375,0.02545166015625,-0.001312255859375,0.00341796875,0.000335693359375
-0.21673583984375,0.120819091796875,0.025970458984375,-0.00128173828125,0.00323486328125,0.000274658203125
-0.217193603515625,0.120361328125,0.026519775390625,-0.001312255859375,0.003082275390625,0.000274658203125
-0.21759033203125,0.1202392578125,0.026824951171875,-0.001220703125,0.002899169921875,0.000244140625
-0.217010498046875,0.120849609375,0.026336669921875,-0.001617431640625,0.002777099609375,0.0003662109375
-0.217132568359375,0.12078857421875,0.025909423828125,-0.001922607421875,0.00299072265625,0.0003662109375
-0.218841552734375,0.1185302734375,0.02484130859375,-0.00238037109375,0.003326416015625,0.000335693359375
-0.21905517578125,0.117645263671875,0.024261474609375,-0.0020751953125,0.003173828125,0.000244140625
-0.219207763671875,0.117645263671875,0.024749755859375,-0.001861572265625,0.00311279296875,0.000213623046875
-0.21875,0.117828369140625,0.024261474609375,-0.001556396484375,0.0030517578125,0.000213623046875
-0.218170166015625,0.118682861328125,0.024505615234375,-0.00140380859375,0.00274658203125,0.000244140625
-0.21697998046875,0.120269775390625,0.02313232421875,-0.00140380859375,0.00262451171875,0.000396728515625
-0.21710205078125,0.121673583984375,0.021759033203125,-0.00201416015625,0.002777099609375,0.00048828125
-0.2174072265625,0.12103271484375,0.0216064453125,-0.002227783203125,0.002655029296875,0.00048828125
-0.21783447265625,0.124725341796875,0.021148681640625,-0.002471923828125,0.002960205078125,0.000579833984375
-0.21905517578125,0.1182861328125,0.024627685546875,-0.002471923828125,0.00250244140625,0.000396728515625
-0.21710205078125,0.120147705078125,0.026336669921875,-0.002197265625,0.002227783203125,0.000396728515625
-0.2197265625,0.118011474609375,0.027130126953125,-0.002227783203125,0.0029296875,0.00042724609375
-0.21685791015625,0.121002197265625,0.025970458984375,-0.002349853515625,0.002960205078125,0.000335693359375
-0.219696044921875,0.1187744140625,0.0250244140625,-0.002471923828125,0.00299072265625,0.00030517578125

-0.220123291015625,0.116119384765625,0.02264404296875,-0.00299072265625,0.004150390625,-0.000244140625
-0.220916748046875,0.115203857421875,0.02484130859375,-0.0025634765625,0.004150390625,-0.000457763671875
-0.22064208984375,0.11553955078125,0.024200439453125,-0.002471923828125,0.00445556640625,-0.00048828125
-0.2205810546875,0.11590576171875,0.02252197265625,-0.00250244140625,0.00469970703125,-0.000396728515625
-0.21990966796875,0.1162109375,0.02239990234375,-0.0025634765625,0.0048828125,-0.0003662109375
-0.22052001953125,0.1168212890625,0.02349853515625,-0.002593994140625,0.0047607421875,-0.000274658203125
-0.22027587890625,0.1181640625,0.025360107421875,-0.002197265625,0.0047607421875,-0.000274658203125
-0.218719482421875,0.11907958984375,0.02349853515625,-0.00213623046875,0.004913330078125,-0.0003662109375
-0.218902587890625,0.11962890625,0.02325439453125,-0.002197265625,0.00494384765625,-0.00042724609375
-0.217864990234375,0.11962890625,0.02398681640625,-0.0020751953125,0.0048828125,-0.00067138671875
-0.218170166015625,0.12054443359375,0.0240478515625,-0.002197265625,0.00494384765625,-0.000579833984375
-0.217742919921875,0.120513916015625,0.023590087890625,-0.002227783203125,0.005035400390625,-0.00054931640625
-0.2183837890625,0.120208740234375,0.023651123046875,-0.00213623046875,0.005157470703125,-0.000640869140625
-0.217742919921875,0.1182861328125,0.023681640625,-0.00146484375,0.00506591796875,-0.001373291015625
-0.216522216796875,0.121337890625,0.025238037109375,-0.001312255859375,0.004669189453125,-0.001129150390625
-0.217315673828125,0.12237548828125,0.027496337890625,-0.00115966796875,0.00408935546875,-0.00103759765625
-0.21710205078125,0.121368408203125,0.026947021484375,-0.001251220703125,0.0040283203125,-0.000885009765625
-0.2181396484375,0.123199462890625,0.02581787109375,-0.001495361328125,0.00390625,-0.000701904296875
-0.216400146484375,0.12255859375,0.022430419921875,-0.001953125,0.00372314453125,-0.0003662109375
-0.2154541015625,0.124725341796875,0.024169921875,-0.00164794921875,0.003631591796875,-0.000946044921875

-0.216949462890625,0.1236572265625,0.02197265625,0.000518798828125,0.0020751953125,-0.0006103515625
-0.21429443359375,0.124908447265625,0.0213623046875,0.00030517578125,0.002044677734375,-0.00067138671875
-0.213958740234375,0.125213623046875,0.02252197265625,0.000152587890625,0.0020751953125,-0.000701904296875
-0.215087890625,0.124847412109375,0.025238037109375,0.00018310546875,0.002105712890625,-0.000732421875
-0.2169189453125,0.1246337890625,0.0205078125,0.000579833984375,0.001617431640625,-0.000885009765625
-0.21575927734375,0.125244140625,0.020050048828125,0.00054931640625,0.001556396484375,-0.0008544921875
-0.21612548828125,0.1224365234375,0.02130126953125,0.000579833984375,0.00164794921875,-0.00115966796875
-0.2177734375,0.120147705078125,0.02130126953125,0.00067138671875,0.001678466796875,-0.00115966796875
-0.218536376953125,0.118896484375,0.020233154296875,0.00067138671875,0.00164794921875,-0.00103759765625
-0.218475341796875,0.1192626953125,0.0198974609375,0.000762939453125,0.001495361328125,-0.0009765625
-0.216705322265625,0.121856689453125,0.0235595703125,0.00048828125,0.0009765625,-0.000579833984375
-0.216583251953125,0.122833251953125,0.027435302734375,0.0,0.001068115234375,-0.00048828125
-0.217010498046875,0.123046875,0.02752685546875,-0.000274658203125,0.0013427734375,-0.0003662109375
-0.217010498046875,0.121917724609375,0.0223388671875,-0.00042724609375,0.002288818359375,-0.000518798828125
-0.217315673828125,0.1217041015625,0.02264404296875,-0.000732421875,0.002349853515625,-0.000335693359375
-0.21685791015625,0.12359619140625,0.024932861328125,-0.0008544921875,0.00238037109375,-0.000335693359375
-0.2166748046875,0.12310791015625,0.02178955078125,-0.000244140625,0.002410888671875,-0.0003662109375
-0.21356201171875,0.126983642578125,0.0225830078125,-0.000152587890625,0.001953125,-0.00067138671875
-0.214630126953125,0.124481201171875,0.024749755859375,-0.00018310546875,0.001800537109375,-0.000732421875
-0.216766357421875,0.122802734375,0.02435302734375,0.0,0.002044677734375,-0.0008544921875

-0.21588134765625,0.12353515625,0.02337646484375,-0.0008544921875,0.002044677734375,-0.00079345703125
-0.21551513671875,0.12420654296875,0.0203857421875,-0.00067138671875,0.00213623046875,-0.000885009765625
-0.21478271484375,0.124420166015625,0.021270751953125,-0.00054931640625,0.00140380859375,-0.00091552734375
-0.21514892578125,0.124969482421875,0.022857666015625,-0.0006103515625,0.0013427734375,-0.00103759765625
-0.2171630859375,0.123382568359375,0.01995849609375,-0.000335693359375,0.001373291015625,-0.0010986328125
-0.21710205078125,0.12310791015625,0.0186767578125,-0.000823974609375,0.00115966796875,-0.0008544921875
-0.2169189453125,0.122406005859375,0.019256591796875,-0.0010986328125,0.000946044921875,-0.00079345703125
-0.214019775390625,0.1256103515625,0.020751953125,-0.00103759765625,0.000762939453125,-0.000885009765625
-0.21307373046875,0.12664794921875,0.022125244140625,-0.00079345703125,0.001190185546875,-0.001129150390625
-0.214019775390625,0.12646484375,0.021209716796875,-0.000701904296875,0.00146484375,-0.001251220703125
-0.21624755859375,0.123931884765625,0.019195556640625,-0.00115966796875,0.0023193359375,-0.001220703125
-0.21685791015625,0.124603271484375,0.019805908203125,-0.00079345703125,0.002166748046875,-0.001312255859375
-0.21630859375,0.125030517578125,0.0201416015625,-0.00054931640625,0.002044677734375,-0.001373291015625
-0.216705322265625,0.12518310546875,0.020050048828125,-0.00042724609375,0.001800537109375,-0.001434326171875
-0.213470458984375,0.128509521484375,0.020172119140625,-0.0003662109375,0.00225830078125,-0.00164794921875
-0.214202880859375,0.126953125,0.019989013671875,-0.00042724609375,0.00238037109375,-0.001739501953125
-0.215667724609375,0.12506103515625,0.02142333984375,-0.00048828125,0.0032958984375,-0.002105712890625
-0.21331787109375,0.1251220703125,0.020416259765625,6.103515625e-05,0.00299072265625,-0.002227783203125
-0.213836669921875,0.12469482421875,0.018646240234375,0.00042724609375,0.00299072265625,-0.002471923828125
-0.2132568359375,0.122894287109375,0.0177001953125,0.00054931640625,0.0029296875,-0.002532958984375

-0.214752197265625,0.127655029296875,0.019134521484375,0.002960205078125,0.00152587890625,-0.000396728515625
-0.21527099609375,0.129852294921875,0.0177001953125,0.00262451171875,0.002044677734375,-0.000335693359375
-0.21575927734375,0.130706787109375,0.01873779296875,0.00225830078125,0.002471923828125,-0.0003662109375
-0.21533203125,0.13006591796875,0.02069091796875,0.001678466796875,0.00335693359375,-0.00048828125
-0.214752197265625,0.131866455078125,0.019561767578125,0.00103759765625,0.00421142578125,-0.00054931640625
-0.213531494140625,0.133056640625,0.017059326171875,0.00091552734375,0.00439453125,-0.000457763671875
-0.210601806640625,0.136077880859375,0.01715087890625,0.000274658203125,0.004913330078125,-0.00079345703125
-0.21026611328125,0.1357421875,0.0177001953125,-0.00018310546875,0.005645751953125,-0.0009765625
-0.208251953125,0.137725830078125,0.0169677734375,-0.00048828125,0.005859375,-0.00103759765625
-0.20977783203125,0.138458251953125,0.01959228515625,-0.00146484375,0.006072998046875,-0.001129150390625
-0.2091064453125,0.13787841796875,0.020172119140625,-0.001708984375,0.006072998046875,-0.001129150390625
-0.208465576171875,0.13861083984375,0.01959228515625,-0.001953125,0.006256103515625,-0.001190185546875
-0.20819091796875,0.139129638671875,0.017120361328125,-0.001800537109375,0.006561279296875,-0.001129150390625
-0.20843505859375,0.137176513671875,0.016265869140625,-0.00140380859375,0.0062255859375,-0.001190185546875
-0.208709716796875,0.13641357421875,0.016510009765625,-0.001220703125,0.006072998046875,-0.001190185546875
-0.209228515625,0.1370849609375,0.0172119140625,-0.001220703125,0.00579833984375,-0.001220703125
-0.206878662109375,0.137176513671875,0.019500732421875,-0.001434326171875,0.005523681640625,-0.000640869140625
-0.208282470703125,0.136810302734375,0.022735595703125,-0.001800537109375,0.005279541015625,-0.000701904296875
-0.2093505859375,0.13458251953125,0.026641845703125,-0.001953125,0.005584716796875,-0.000274658203125
-0.210784912109375,0.1318359375,0.02667236328125,-0.003326416015625,0.006134033203125,0.00091552734375

-0.216461181640625,0.1258544921875,0.022705078125,-0.007720947265625,0.008819580078125,0.005279541015625
-0.21826171875,0.1317138671875,0.013397216796875,-0.004638671875,0.010406494140625,0.003021240234375
-0.2176513671875,0.124664306640625,0.009429931640625,-0.000457763671875,0.011260986328125,0.000701904296875
-0.201446533203125,0.146697998046875,-0.00030517578125,0.0,0.009063720703125,0.001739501953125
-0.2049560546875,0.1376953125,0.004547119140625,0.00457763671875,0.002197265625,-0.000701904296875
-0.207763671875,0.13037109375,0.01409912109375,0.005950927734375,-0.000396728515625,-0.00152587890625
-0.21282958984375,0.115020751953125,0.033935546875,0.005584716796875,-0.00390625,-0.000885009765625
-0.2144775390625,0.1083984375,0.039825439453125,0.004058837890625,-0.00323486328125,-0.000457763671875
-0.21820068359375,0.113861083984375,0.042816162109375,0.00201416015625,-0.00164794921875,0.000244140625
-0.214569091796875,0.1207275390625,0.052581787109375,-0.002166748046875,0.005584716796875,0.00189208984375
-0.21923828125,0.127593994140625,0.049560546875,-0.005035400390625,0.007110595703125,0.001739501953125
-0.219390869140625,0.1256103515625,0.044464111328125,-0.004638671875,0.007781982421875,0.0020751953125
-0.207061767578125,0.1318359375,0.035400390625,-0.004608154296875,0.00750732421875,0.003570556640625
-0.1998291015625,0.141845703125,0.032073974609375,-0.005859375,0.008453369140625,0.0037841796875
-0.19464111328125,0.150787353515625,0.02606201171875,-0.006378173828125,0.009429931640625,0.0035400390625
-0.196502685546875,0.14459228515625,0.019805908203125,-0.006378173828125,0.0101318359375,0.002349853515625
-0.199493408203125,0.144805908203125,0.025665283203125,-0.005859375,0.00927734375,0.001678466796875
-0.20849609375,0.137908935546875,0.032501220703125,-0.00439453125,0.0076904296875,0.000701904296875
-0.2269287109375,0.118804931640625,0.0252685546875,0.00067138671875,0.00604248046875,-0.000640869140625
-0.223968505859375,0.120635986328125,0.027130126953125,0.001312255859375,0.005035400390625,-0.00018310546875

-0.218963623046875,0.11761474609375,0.033935546875,-0.00042724609375,0.003143310546875,0.001617431640625
-0.2191162109375,0.116485595703125,0.036224365234375,-9.1552734375e-05,0.002960205078125,0.001739501953125
-0.2181396484375,0.11846923828125,0.035552978515625,0.00018310546875,0.00311279296875,0.00189208984375
-0.21563720703125,0.121337890625,0.034881591796875,-0.000396728515625,0.00372314453125,0.0023193359375
-0.2125244140625,0.125457763671875,0.031494140625,-0.001556396484375,0.005340576171875,0.002349853515625
-0.211181640625,0.12701416015625,0.0313720703125,-0.00201416015625,0.00543212890625,0.00238037109375
-0.210693359375,0.129058837890625,0.029510498046875,-0.00189208984375,0.00543212890625,0.002044677734375
-0.21246337890625,0.1280517578125,0.027801513671875,-0.00067138671875,0.0045166015625,0.001739501953125
-0.2137451171875,0.1273193359375,0.02923583984375,-0.00018310546875,0.00396728515625,0.001678466796875
-0.2147216796875,0.1273193359375,0.031585693359375,0.000701904296875,0.002777099609375,0.00140380859375
-0.21575927734375,0.126495361328125,0.033203125,0.0008544921875,0.002044677734375,0.001251220703125
-0.21453857421875,0.12738037109375,0.033233642578125,0.000946044921875,0.0018310546875,0.001068115234375
-0.21337890625,0.125213623046875,0.034332275390625,0.00067138671875,0.001800537109375,0.000823974609375
-0.215423583984375,0.12298583984375,0.034271240234375,0.00042724609375,0.001556396484375,0.00048828125
-0.2154541015625,0.122833251953125,0.0345458984375,0.000244140625,0.001556396484375,0.000274658203125
-0.216949462890625,0.1221923828125,0.033477783203125,-0.000213623046875,0.00189208984375,0.00018310546875
-0.21575927734375,0.123138427734375,0.031951904296875,-0.001312255859375,0.00250244140625,0.00018310546875
-0.21466064453125,0.124603271484375,0.031402587890625,-0.00164794921875,0.002716064453125,0.000244140625
-0.216339111328125,0.122283935546875,0.030548095703125,-0.001434326171875,0.00244140625,-0.000335693359375
-0.21697998046875,0.118438720703125,0.025634765625,-0.000823974609375,0.0015869140625,-0.00054931640625

-0.215911865234375,0.122894287109375,0.03582763671875,-0.00103759765625,0.001678466796875,-0.0006103515625
-0.215911865234375,0.121246337890625,0.036285400390625,-0.0015869140625,0.00274658203125,-0.000640869140625
-0.2159423828125,0.1220703125,0.035247802734375,-0.001983642578125,0.003448486328125,-0.00067138671875
-0.213958740234375,0.124267578125,0.0313720703125,-0.003021240234375,0.00469970703125,-0.00048828125
-0.213104248046875,0.12481689453125,0.033966064453125,-0.0045166015625,0.005279541015625,-0.000152587890625
-0.21331787109375,0.124237060546875,0.0345458984375,-0.005096435546875,0.005584716796875,6.103515625e-05
-0.21429443359375,0.123016357421875,0.03533935546875,-0.004974365234375,0.0059814453125,9.1552734375e-05
-0.217742919921875,0.121673583984375,0.028594970703125,-0.00335693359375,0.0054931640625,0.00018310546875
-0.21661376953125,0.123504638671875,0.024169921875,-0.002349853515625,0.00482177734375,0.000213623046875
-0.210235595703125,0.129669189453125,0.021392822265625,-0.0008544921875,0.003082275390625,0.000244140625
-0.2073974609375,0.130859375,0.02252197265625,-0.000762939453125,0.001617431640625,0.0003662109375
-0.208404541015625,0.1300048828125,0.02410888671875,-0.000640869140625,0.000885009765625,0.00042724609375
-0.2110595703125,0.127593994140625,0.03021240234375,-0.000396728515625,-0.0003662109375,0.00018310546875
-0.215362548828125,0.12567138671875,0.031341552734375,0.000518798828125,-0.001251220703125,0.0001220703125
-0.217620849609375,0.12481689453125,0.030792236328125,0.000701904296875,-0.00128173828125,9.1552734375e-05
-0.217071533203125,0.1220703125,0.030517578125,0.005340576171875,0.001556396484375,-0.00146484375
-0.21331787109375,0.12152099609375,0.02740478515625,0.00604248046875,0.001190185546875,-0.000732421875
-0.211700439453125,0.126434326171875,0.02587890625,0.005615234375,0.001617431640625,-0.00054931640625
-0.211090087890625,0.121978759765625,0.0260009765625,0.004730224609375,0.00262451171875,6.103515625e-05
-0.1968994140625,0.139556884765625,0.0323486328125,0.00390625,0.00201416015625,-0.000213623046875

-0.220703125,0.11846923828125,0.029632568359375,-0.002685546875,0.003082275390625,-0.000885009765625
-0.218170166015625,0.120208740234375,0.028228759765625,-0.002655029296875,0.0023193359375,-0.000762939453125
-0.21710205078125,0.12396240234375,0.029693603515625,-0.00250244140625,0.001495361328125,-0.000732421875
-0.21527099609375,0.126007080078125,0.03167724609375,-0.000640869140625,0.00079345703125,-0.000732421875
-0.2164306640625,0.1243896484375,0.030609130859375,6.103515625e-05,0.000335693359375,-0.0008544921875
-0.21466064453125,0.1248779296875,0.0289306640625,0.000274658203125,9.1552734375e-05,-0.000885009765625
-0.214752197265625,0.1263427734375,0.02777099609375,0.00079345703125,0.000152587890625,-0.0009765625
-0.2158203125,0.125457763671875,0.02947998046875,0.0008544921875,-0.000335693359375,-0.00091552734375
-0.215423583984375,0.123199462890625,0.026947021484375,0.00067138671875,-0.0001220703125,-0.000762939453125
-0.2166748046875,0.122406005859375,0.025848388671875,0.00054931640625,0.000244140625,-0.00030517578125
-0.21435546875,0.124053955078125,0.02557373046875,0.000335693359375,0.00048828125,-0.000579833984375
-0.214263916015625,0.12298583984375,0.027923583984375,0.000213623046875,9.1552734375e-05,-0.0009765625
-0.214508056640625,0.1236572265625,0.02679443359375,0.001220703125,0.0006103515625,-0.001220703125
-0.21405029296875,0.124053955078125,0.024993896484375,0.000335693359375,0.001190185546875,-0.00091552734375
-0.2142333984375,0.12518310546875,0.025634765625,-0.000274658203125,0.001129150390625,-0.000885009765625
-0.2161865234375,0.122344970703125,0.026947021484375,-0.00054931640625,0.001739501953125,-0.0008544921875
-0.21661376953125,0.121978759765625,0.0255126953125,-0.000762939453125,0.00250244140625,-0.000732421875
-0.217041015625,0.12237548828125,0.0242919921875,-0.001129150390625,0.002593994140625,-0.000579833984375
-0.217010498046875,0.120147705078125,0.025299072265625,-0.000946044921875,0.003021240234375,-0.000396728515625
-0.217376708984375,0.11993408203125,0.0257568359375,-0.00115966796875,0.00311279296875,-0.000396728515625

-0.2159423828125,0.122100830078125,0.026947021484375,-0.002288818359375,0.00433349609375,0.000396728515625
-0.216796875,0.122314453125,0.02630615234375,-0.00213623046875,0.0045166015625,0.0003662109375
-0.217254638671875,0.121551513671875,0.024322509765625,-0.002166748046875,0.004730224609375,0.00054931640625
-0.216796875,0.120880126953125,0.023101806640625,-0.002685546875,0.0054931640625,0.000579833984375
-0.2174072265625,0.120941162109375,0.024627685546875,-0.003204345703125,0.005889892578125,0.00079345703125
-0.21759033203125,0.12139892578125,0.02496337890625,-0.00341796875,0.00604248046875,0.000823974609375
-0.216888427734375,0.1214599609375,0.024627685546875,-0.002960205078125,0.006011962890625,0.0009765625
-0.217071533203125,0.12200927734375,0.023590087890625,-0.002593994140625,0.005340576171875,0.001129150390625
-0.215850830078125,0.123443603515625,0.02239990234375,-0.002685546875,0.00469970703125,0.00152587890625
-0.21630859375,0.123199462890625,0.024078369140625,-0.002593994140625,0.00445556640625,0.001556396484375
-0.21575927734375,0.123382568359375,0.02386474609375,-0.00225830078125,0.004302978515625,0.00164794921875
-0.21600341796875,0.122161865234375,0.02386474609375,-0.002044677734375,0.00390625,0.001739501953125
-0.216156005859375,0.12200927734375,0.02423095703125,-0.001953125,0.00384521484375,0.001800537109375
-0.215789794921875,0.12237548828125,0.02569580078125,-0.001861572265625,0.003448486328125,0.001953125
-0.215606689453125,0.12286376953125,0.026763916015625,-0.002227783203125,0.003570556640625,0.002227783203125
-0.216033935546875,0.122283935546875,0.02655029296875,-0.0023193359375,0.003662109375,0.00225830078125
-0.215789794921875,0.1224365234375,0.025482177734375,-0.002532958984375,0.003997802734375,0.002593994140625
-0.2159423828125,0.12322998046875,0.024200439453125,-0.00262451171875,0.0040283203125,0.002532958984375
-0.2156982421875,0.123626708984375,0.024017333984375,-0.002593994140625,0.00384521484375,0.002532958984375
-0.215728759765625,0.12322998046875,0.02813720703125,-0.002410888671875,0.00341796875,0.00225830078125

-0.215423583984375,0.125946044921875,0.02789306640625,-0.003631591796875,0.005767822265625,0.00146484375
-0.215606689453125,0.125579833984375,0.0296630859375,-0.00396728515625,0.005767822265625,0.00115966796875
-0.215576171875,0.124908447265625,0.02923583984375,-0.00390625,0.006011962890625,0.00103759765625
-0.21588134765625,0.12396240234375,0.027740478515625,-0.003692626953125,0.0059814453125,0.0008544921875
-0.214996337890625,0.12445068359375,0.0262451171875,-0.00347900390625,0.00592041015625,0.000823974609375
-0.215484619140625,0.12384033203125,0.0263671875,-0.003387451171875,0.005767822265625,0.00079345703125
-0.215850830078125,0.12322998046875,0.0264892578125,-0.003387451171875,0.005584716796875,0.00079345703125
-0.215972900390625,0.12213134765625,0.0267333984375,-0.0037841796875,0.005706787109375,0.000946044921875
-0.21630859375,0.12066650390625,0.02679443359375,-0.00360107421875,0.005706787109375,0.0009765625
-0.216400146484375,0.120574951171875,0.026153564453125,-0.003326416015625,0.005523681640625,0.001007080078125
-0.2149658203125,0.122161865234375,0.027069091796875,-0.002838134765625,0.005401611328125,0.001007080078125
-0.2159423828125,0.12249755859375,0.027801513671875,-0.002349853515625,0.00494384765625,0.0009765625
-0.215728759765625,0.122833251953125,0.029083251953125,-0.002166748046875,0.00469970703125,0.00091552734375
-0.216339111328125,0.12213134765625,0.0296630859375,-0.00201416015625,0.0050048828125,0.0010986328125
-0.217010498046875,0.121002197265625,0.02947998046875,-0.002105712890625,0.005126953125,0.001068115234375
-0.2161865234375,0.121368408203125,0.028350830078125,-0.002227783203125,0.005340576171875,0.001129150390625
-0.216278076171875,0.123291015625,0.02764892578125,-0.00244140625,0.00543212890625,0.00091552734375
-0.2164306640625,0.122955322265625,0.028717041015625,-0.002532958984375,0.005401611328125,0.0008544921875
-0.216461181640625,0.123291015625,0.0294189453125,-0.002593994140625,0.0054931640625,0.00079345703125
-0.217315673828125,0.119720458984375,0.028228759765625,-0.00250244140625,0.00579833984375,0.0006103515625

-0.216705322265625,0.122100830078125,0.0299072265625,-0.002716064453125,0.004730224609375,0.000579833984375
-0.216766357421875,0.12213134765625,0.030242919921875,-0.00286865234375,0.00457763671875,0.000396728515625
-0.216033935546875,0.122589111328125,0.030609130859375,-0.002838134765625,0.004486083984375,0.000518798828125
-0.21588134765625,0.12335205078125,0.029510498046875,-0.00299072265625,0.004486083984375,0.000457763671875
-0.215576171875,0.1231689453125,0.029144287109375,-0.0030517578125,0.00421142578125,0.00042724609375
-0.215484619140625,0.122467041015625,0.030059814453125,-0.00299072265625,0.004150390625,0.0003662109375
-0.215911865234375,0.1221923828125,0.028778076171875,-0.002838134765625,0.004241943359375,0.000244140625
-0.215789794921875,0.12286376953125,0.028778076171875,-0.00286865234375,0.004058837890625,0.00030517578125
-0.21636962890625,0.123138427734375,0.030364990234375,-0.002899169921875,0.0037841796875,0.000335693359375
-0.2166748046875,0.12213134765625,0.0306396484375,-0.00274658203125,0.00384521484375,0.000274658203125
-0.215728759765625,0.122467041015625,0.029510498046875,-0.002685546875,0.004119873046875,0.000213623046875
-0.216033935546875,0.122283935546875,0.02850341796875,-0.002471923828125,0.004119873046875,0.0001220703125
-0.216400146484375,0.12176513671875,0.02923583984375,-0.00201416015625,0.00384521484375,-0.0001220703125
-0.216522216796875,0.12127685546875,0.0296630859375,-0.0015869140625,0.003753662109375,-0.0001220703125
-0.216278076171875,0.12115478515625,0.029205322265625,-0.0015869140625,0.00372314453125,-0.0001220703125
-0.216033935546875,0.122222900390625,0.028594970703125,-0.001617431640625,0.003662109375,-9.1552734375e-05
-0.215972900390625,0.122589111328125,0.029937744140625,-0.001434326171875,0.003448486328125,-0.00018310546875
-0.216278076171875,0.12249755859375,0.03076171875,-0.00128173828125,0.003509521484375,-0.000274658203125
-0.215667724609375,0.122039794921875,0.0294189453125,-0.001190185546875,0.003662109375,-0.000152587890625
-0.216156005859375,0.12139892578125,0.029266357421875,-0.001220703125,0.00372314453125,-0.0001220703125

-0.214996337890625,0.123382568359375,0.0294189453125,-0.000823974609375,0.003021240234375,-0.00018310546875
-0.215057373046875,0.12384033203125,0.029815673828125,-0.00103759765625,0.002960205078125,-0.0001220703125
-0.215728759765625,0.12310791015625,0.02978515625,-0.00115966796875,0.003021240234375,-9.1552734375e-05
-0.216094970703125,0.122314453125,0.030487060546875,-0.001434326171875,0.00311279296875,-6.103515625e-05
-0.215850830078125,0.122711181640625,0.029876708984375,-0.0013427734375,0.003021240234375,-6.103515625e-05
-0.21624755859375,0.1221923828125,0.030517578125,-0.00140380859375,0.003082275390625,0.0
-0.21612548828125,0.1212158203125,0.028717041015625,-0.001495361328125,0.003143310546875,3.0517578125e-05
-0.2159423828125,0.122406005859375,0.027618408203125,-0.0013427734375,0.002960205078125,3.0517578125e-05
-0.215911865234375,0.12225341796875,0.028076171875,-0.00115966796875,0.0028076171875,0.0
-0.216217041015625,0.1224365234375,0.02984619140625,-0.000732421875,0.0025634765625,-0.000152587890625
-0.215423583984375,0.12274169921875,0.029754638671875,-0.000640869140625,0.002410888671875,-3.0517578125e-05
-0.21514892578125,0.123260498046875,0.0294189453125,-0.0009765625,0.00244140625,3.0517578125e-05
-0.217193603515625,0.121307373046875,0.029022216796875,-0.001678466796875,0.00274658203125,-6.103515625e-05
-0.218048095703125,0.120361328125,0.03082275390625,-0.001373291015625,0.00244140625,-3.0517578125e-05
-0.218170166015625,0.118316650390625,0.0294189453125,-0.00128173828125,0.00286865234375,-0.000152587890625
-0.216827392578125,0.121734619140625,0.027557373046875,-0.001129150390625,0.002685546875,-0.000152587890625
-0.2171630859375,0.1204833984375,0.02880859375,-0.001129150390625,0.002777099609375,-0.0001220703125
-0.2166748046875,0.121337890625,0.02886962890625,-0.001007080078125,0.00286865234375,-0.000152587890625
-0.21636962890625,0.122344970703125,0.0267333984375,-0.000732421875,0.00274658203125,-0.000213623046875
-0.216949462890625,0.121246337890625,0.0283203125,-0.000885009765625,0.002716064453125,-0.000152587890625

-0.216644287109375,0.121124267578125,0.027984619140625,-0.000457763671875,0.00262451171875,-0.000518798828125
-0.2164306640625,0.122161865234375,0.027679443359375,-0.0006103515625,0.00274658203125,-0.00048828125
-0.2159423828125,0.122406005859375,0.027679443359375,-0.00067138671875,0.002716064453125,-0.00048828125
-0.217041015625,0.122100830078125,0.02783203125,-0.0008544921875,0.003143310546875,-0.000518798828125
-0.2158203125,0.1219482421875,0.0272216796875,-0.00079345703125,0.003082275390625,-0.00042724609375
-0.215576171875,0.12274169921875,0.0263671875,-0.001007080078125,0.00299072265625,-0.000396728515625
-0.215545654296875,0.12298583984375,0.025787353515625,-0.00091552734375,0.002716064453125,-0.00030517578125
-0.216949462890625,0.12158203125,0.02777099609375,-0.00067138671875,0.002685546875,-0.000518798828125
-0.21685791015625,0.12164306640625,0.027923583984375,-0.000701904296875,0.002685546875,-0.000396728515625
-0.2161865234375,0.123077392578125,0.026947021484375,-0.000946044921875,0.0028076171875,-0.000274658203125
-0.2171630859375,0.1221923828125,0.02752685546875,-0.00115966796875,0.0029296875,-0.00018310546875
-0.217010498046875,0.12261962890625,0.0274658203125,-0.0010986328125,0.002777099609375,-0.000213623046875
-0.21502685546875,0.12420654296875,0.026580810546875,-0.001129150390625,0.002777099609375,-0.000274658203125
-0.21533203125,0.12408447265625,0.02655029296875,-0.001220703125,0.00262451171875,-0.000152587890625
-0.215545654296875,0.12335205078125,0.026702880859375,-0.001251220703125,0.002685546875,-0.000274658203125
-0.2159423828125,0.123016357421875,0.02679443359375,-0.001312255859375,0.00286865234375,-0.00030517578125
-0.216278076171875,0.123291015625,0.025665283203125,-0.00115966796875,0.00299072265625,-0.000396728515625
-0.216094970703125,0.123748779296875,0.02569580078125,-0.00103759765625,0.003021240234375,-0.000457763671875
-0.21636962890625,0.122955322265625,0.027496337890625,-0.001190185546875,0.00286865234375,-0.0003662109375
-0.2159423828125,0.122955322265625,0.02667236328125,-0.00103759765625,0.002655029296875,-0.00030517578125

-0.216705322265625,0.12225341796875,0.025665283203125,-0.00115966796875,0.00341796875,-0.000335693359375
-0.21600341796875,0.122406005859375,0.02532958984375,-0.0010986328125,0.003387451171875,-0.000335693359375
-0.216064453125,0.12249755859375,0.02569580078125,-0.00103759765625,0.003387451171875,-0.0003662109375
-0.216278076171875,0.122283935546875,0.026214599609375,-0.00103759765625,0.003448486328125,-0.000213623046875
-0.2159423828125,0.123199462890625,0.02630615234375,-0.001129150390625,0.003448486328125,-0.000244140625
-0.2164306640625,0.122955322265625,0.026123046875,-0.001129150390625,0.003662109375,-0.00018310546875
-0.216094970703125,0.123199462890625,0.02655029296875,-0.001190185546875,0.003753662109375,-0.000244140625
-0.21575927734375,0.123321533203125,0.02691650390625,-0.00103759765625,0.003692626953125,-0.000274658203125
-0.215911865234375,0.123809814453125,0.02703857421875,-0.001129150390625,0.003814697265625,-0.00030517578125
-0.2154541015625,0.123992919921875,0.02691650390625,-0.00128173828125,0.004150390625,-0.000244140625
-0.215301513671875,0.124298095703125,0.026702880859375,-0.001495361328125,0.00445556640625,-0.000274658203125
-0.2152099609375,0.124542236328125,0.027374267578125,-0.001495361328125,0.00457763671875,-0.0003662109375
-0.21533203125,0.124420166015625,0.027923583984375,-0.0013427734375,0.00439453125,-0.00042724609375
-0.214508056640625,0.124908447265625,0.026885986328125,-0.001007080078125,0.004180908203125,-0.00048828125
-0.2138671875,0.125335693359375,0.02642822265625,-0.0009765625,0.004119873046875,-0.00042724609375
-0.2142333984375,0.1256103515625,0.027313232421875,-0.00115966796875,0.00390625,-0.00048828125
-0.21484375,0.125213623046875,0.028167724609375,-0.001800537109375,0.003875732421875,-0.000244140625
-0.2147216796875,0.12506103515625,0.0277099609375,-0.0018310546875,0.003875732421875,-0.000213623046875
-0.214263916015625,0.125274658203125,0.027557373046875,-0.00177001953125,0.003692626953125,-0.00018310546875
-0.214935302734375,0.124969482421875,0.026641845703125,-0.00152587890625,0.003692626953125,-0.00030517578125

-0.214202880859375,0.124847412109375,0.02679443359375,-0.00091552734375,0.00323486328125,-0.000244140625
-0.21484375,0.124176025390625,0.026580810546875,-0.00067138671875,0.003021240234375,-0.00030517578125
-0.215423583984375,0.12408447265625,0.027191162109375,-0.000762939453125,0.0029296875,-0.00030517578125
-0.21453857421875,0.124908447265625,0.02777099609375,-0.0008544921875,0.003082275390625,-0.00018310546875
-0.214324951171875,0.125335693359375,0.02752685546875,-0.000946044921875,0.00311279296875,-6.103515625e-05
-0.2142333984375,0.125244140625,0.028411865234375,-0.0009765625,0.003143310546875,-9.1552734375e-05
-0.214691162109375,0.12469482421875,0.027740478515625,-0.0008544921875,0.00341796875,-0.000213623046875
-0.214385986328125,0.124908447265625,0.026519775390625,-0.000762939453125,0.00335693359375,-0.000213623046875
-0.214324951171875,0.125152587890625,0.027557373046875,-0.00079345703125,0.003173828125,-0.000244140625
-0.21490478515625,0.12506103515625,0.02789306640625,-0.001068115234375,0.00335693359375,-0.000244140625
-0.21484375,0.124725341796875,0.028076171875,-0.0008544921875,0.003326416015625,-0.0001220703125
-0.214599609375,0.124755859375,0.02764892578125,-0.00079345703125,0.00335693359375,-0.000152587890625
-0.214141845703125,0.125335693359375,0.026947021484375,-0.0006103515625,0.003265380859375,-0.000152587890625
-0.214630126953125,0.125091552734375,0.027130126953125,-0.000946044921875,0.00335693359375,-0.000152587890625
-0.214599609375,0.12481689453125,0.028228759765625,-0.000946044921875,0.003326416015625,-0.00018310546875
-0.215087890625,0.124267578125,0.027069091796875,-0.000823974609375,0.003570556640625,-6.103515625e-05
-0.214874267578125,0.124359130859375,0.02642822265625,-0.000762939453125,0.0032958984375,-0.0001220703125
-0.214630126953125,0.124664306640625,0.026519775390625,-0.000823974609375,0.00323486328125,-0.0001220703125
-0.214874267578125,0.12506103515625,0.0277099609375,-0.000762939453125,0.003143310546875,-3.0517578125e-05
-0.214599609375,0.124908447265625,0.0286865234375,-0.000640869140625,0.00299072265625,-0.000152587890625

-0.214813232421875,0.124847412109375,0.02777099609375,-0.0008544921875,0.00323486328125,-3.0517578125e-05
-0.214447021484375,0.125335693359375,0.027252197265625,-0.000762939453125,0.00341796875,6.103515625e-05
-0.21490478515625,0.124481201171875,0.026702880859375,-0.000762939453125,0.00341796875,3.0517578125e-05
-0.214019775390625,0.125,0.02752685546875,-0.000946044921875,0.0032958984375,0.0001220703125
-0.214141845703125,0.125732421875,0.027923583984375,-0.000732421875,0.00311279296875,3.0517578125e-05
-0.214691162109375,0.125396728515625,0.028228759765625,-0.000701904296875,0.003021240234375,0.0
-0.214691162109375,0.124755859375,0.0281982421875,-0.000762939453125,0.0030517578125,6.103515625e-05
-0.214813232421875,0.125,0.027313232421875,-0.001251220703125,0.00323486328125,6.103515625e-05
-0.2147216796875,0.12481689453125,0.02734375,-0.001251220703125,0.003204345703125,0.0001220703125
-0.2147216796875,0.124755859375,0.027435302734375,-0.00115966796875,0.00311279296875,6.103515625e-05
-0.214813232421875,0.1248779296875,0.02777099609375,-0.00103759765625,0.003082275390625,3.0517578125e-05
-0.215240478515625,0.1246337890625,0.02783203125,-0.001220703125,0.003326416015625,6.103515625e-05
-0.21466064453125,0.124725341796875,0.02691650390625,-0.001434326171875,0.003448486328125,9.1552734375e-05
-0.2147216796875,0.124420166015625,0.02703857421875,-0.001312255859375,0.0035400390625,3.0517578125e-05
-0.21490478515625,0.124542236328125,0.0274658203125,-0.0010986328125,0.00347900390625,3.0517578125e-05
-0.21484375,0.1246337890625,0.02880859375,-0.0009765625,0.00335693359375,0.0
-0.213897705078125,0.125396728515625,0.027557373046875,-0.0009765625,0.003326416015625,0.000213623046875
-0.214324951171875,0.125732421875,0.027374267578125,-0.0010986328125,0.003448486328125,0.000213623046875
-0.214508056640625,0.12506103515625,0.02740478515625,-0.00146484375,0.003570556640625,0.000152587890625
-0.215179443359375,0.124542236328125,0.02703857421875,-0.001129150390625,0.003448486328125,0.000152587890625

-0.21466064453125,0.124969482421875,0.02685546875,-0.0013427734375,0.003631591796875,3.0517578125e-05
-0.21466064453125,0.125030517578125,0.027740478515625,-0.001373291015625,0.00360107421875,-3.0517578125e-05
-0.214630126953125,0.12506103515625,0.027374267578125,-0.001312255859375,0.003631591796875,-3.0517578125e-05
-0.214630126953125,0.124969482421875,0.026611328125,-0.00128173828125,0.003662109375,3.0517578125e-05
-0.21453857421875,0.12506103515625,0.027374267578125,-0.00128173828125,0.003631591796875,-9.1552734375e-05
-0.21441650390625,0.125274658203125,0.02764892578125,-0.001251220703125,0.003631591796875,-0.0001220703125
-0.215362548828125,0.12481689453125,0.0283203125,-0.001312255859375,0.00360107421875,-0.00018310546875
-0.214599609375,0.125152587890625,0.027679443359375,-0.001251220703125,0.00396728515625,-0.000213623046875
-0.213958740234375,0.12530517578125,0.027008056640625,-0.001373291015625,0.00390625,-0.000152587890625
-0.21435546875,0.12506103515625,0.027313232421875,-0.001251220703125,0.0037841796875,-0.000152587890625
-0.21453857421875,0.12481689453125,0.02716064453125,-0.001068115234375,0.003662109375,-0.000152587890625
-0.214874267578125,0.124664306640625,0.02789306640625,-0.000946044921875,0.0037841796875,-9.1552734375e-05
-0.21453857421875,0.125335693359375,0.027313232421875,-0.0009765625,0.003875732421875,-6.103515625e-05
-0.214324951171875,0.12493896484375,0.02764892578125,-0.0009765625,0.003936767578125,-6.103515625e-05
-0.214630126953125,0.125030517578125,0.02764892578125,-0.00103759765625,0.0037841796875,-3.0517578125e-05
-0.21490478515625,0.124755859375,0.028289794921875,-0.001007080078125,0.003753662109375,-0.0001220703125
-0.21392822265625,0.1251220703125,0.026947021484375,-0.000946044921875,0.003875732421875,-6.103515625e-05
-0.213897705078125,0.125762939453125,0.02728271484375,-0.000885009765625,0.003753662109375,-6.103515625e-05
-0.214263916015625,0.125244140625,0.028472900390625,-0.0010986328125,0.00408935546875,0.0
-0.2154541015625,0.124847412109375,0.029296875,-0.00079345703125,0.004180908203125,-0.000274658203125

-0.213775634765625,0.126434326171875,0.02880859375,-0.001312255859375,0.00408935546875,-0.00018310546875
-0.213775634765625,0.12628173828125,0.029541015625,-0.001190185546875,0.004119873046875,-0.000213623046875
-0.213897705078125,0.126708984375,0.02923583984375,-0.001220703125,0.004150390625,-0.000244140625
-0.213287353515625,0.126556396484375,0.029510498046875,-0.001220703125,0.00408935546875,-0.00030517578125
-0.213958740234375,0.126251220703125,0.029022216796875,-0.00103759765625,0.00384521484375,-0.00030517578125
-0.2139892578125,0.126556396484375,0.02899169921875,-0.000946044921875,0.003631591796875,-0.0003662109375
-0.21331787109375,0.12725830078125,0.030120849609375,-0.0013427734375,0.003509521484375,-0.000244140625
-0.213165283203125,0.126800537109375,0.030181884765625,-0.001190185546875,0.003326416015625,-0.000274658203125
-0.2127685546875,0.12646484375,0.029296875,-0.001190185546875,0.003265380859375,-0.000335693359375
-0.213470458984375,0.125701904296875,0.029510498046875,-0.001190185546875,0.003448486328125,-0.00042724609375
-0.214080810546875,0.124969482421875,0.02972412109375,-0.00140380859375,0.0035400390625,-0.00030517578125
-0.21331787109375,0.12548828125,0.029205322265625,-0.00140380859375,0.00360107421875,-0.000274658203125
-0.21295166015625,0.126129150390625,0.029876708984375,-0.0018310546875,0.00384521484375,-9.1552734375e-05
-0.213653564453125,0.125274658203125,0.030517578125,-0.001739501953125,0.004119873046875,3.0517578125e-05
-0.21368408203125,0.124969482421875,0.030548095703125,-0.00164794921875,0.003997802734375,6.103515625e-05
-0.214202880859375,0.1248779296875,0.030487060546875,-0.001556396484375,0.003997802734375,6.103515625e-05
-0.212738037109375,0.126312255859375,0.030548095703125,-0.001861572265625,0.003692626953125,0.000213623046875
-0.2119140625,0.1278076171875,0.029876708984375,-0.0018310546875,0.003875732421875,0.00042724609375
-0.21307373046875,0.126708984375,0.029815673828125,-0.001861572265625,0.0040283203125,0.000244140625
-0.213134765625,0.1265869140625,0.029449462890625,-0.001800537109375,0.00408935546875,0.000213623046875

-0.211517333984375,0.126800537109375,0.031646728515625,-0.001678466796875,0.003814697265625,0.000213623046875
-0.212371826171875,0.12689208984375,0.032073974609375,-0.001708984375,0.00384521484375,0.000335693359375
-0.21356201171875,0.126220703125,0.03070068359375,-0.001678466796875,0.00408935546875,0.0003662109375
-0.21380615234375,0.1265869140625,0.02984619140625,-0.001739501953125,0.004364013671875,0.00042724609375
-0.2130126953125,0.12652587890625,0.0291748046875,-0.001617431640625,0.004364013671875,0.000518798828125
-0.21307373046875,0.12652587890625,0.0296630859375,-0.001495361328125,0.004119873046875,0.00048828125
-0.212615966796875,0.127105712890625,0.029022216796875,-0.001373291015625,0.0040283203125,0.00054931640625
-0.212554931640625,0.127777099609375,0.028350830078125,-0.001068115234375,0.003814697265625,0.00048828125
-0.212615966796875,0.12762451171875,0.029144287109375,-0.001129150390625,0.003753662109375,0.00042724609375
-0.213470458984375,0.12738037109375,0.030181884765625,-0.001129150390625,0.00360107421875,0.00042724609375
-0.21405029296875,0.12628173828125,0.0318603515625,-0.00091552734375,0.00323486328125,0.000274658203125
-0.21282958984375,0.12701416015625,0.030364990234375,-0.000701904296875,0.003204345703125,9.1552734375e-05
-0.21209716796875,0.127288818359375,0.029815673828125,-0.000732421875,0.003387451171875,0.000152587890625
-0.212432861328125,0.127655029296875,0.03082275390625,-0.000885009765625,0.00323486328125,3.0517578125e-05
-0.2135009765625,0.1263427734375,0.03253173828125,-0.00140380859375,0.003265380859375,6.103515625e-05
-0.213134765625,0.12646484375,0.031951904296875,-0.0013427734375,0.00341796875,0.0001220703125
-0.212738037109375,0.127227783203125,0.03021240234375,-0.00140380859375,0.003662109375,0.000152587890625
-0.212371826171875,0.12725830078125,0.029998779296875,-0.00152587890625,0.003631591796875,0.00018310546875
-0.212554931640625,0.12744140625,0.02984619140625,-0.00140380859375,0.003448486328125,0.000152587890625
-0.21270751953125,0.127105712890625,0.03033447265625,-0.001190185546875,0.003387451171875,0.000152587890625

-0.2137451171875,0.124908447265625,0.0306396484375,-0.00140380859375,0.00347900390625,0.00030517578125
-0.2132568359375,0.126068115234375,0.030487060546875,-0.0010986328125,0.0035400390625,0.000244140625
-0.21405029296875,0.125762939453125,0.03057861328125,-0.0013427734375,0.003570556640625,0.000396728515625
-0.2139892578125,0.125701904296875,0.0301513671875,-0.001373291015625,0.003631591796875,0.00042724609375
-0.2130126953125,0.126556396484375,0.030059814453125,-0.00140380859375,0.003509521484375,0.000457763671875
-0.21282958984375,0.126861572265625,0.0308837890625,-0.001190185546875,0.00299072265625,0.0003662109375
-0.213104248046875,0.1263427734375,0.031524658203125,-0.001312255859375,0.002960205078125,0.0003662109375
-0.213348388671875,0.12615966796875,0.031280517578125,-0.001556396484375,0.003082275390625,0.000396728515625
-0.2138671875,0.12591552734375,0.030914306640625,-0.001556396484375,0.003387451171875,0.000457763671875
-0.2138671875,0.12591552734375,0.030670166015625,-0.00164794921875,0.003509521484375,0.00042724609375
-0.213134765625,0.126068115234375,0.030059814453125,-0.00164794921875,0.003631591796875,0.000396728515625
-0.2135009765625,0.12591552734375,0.0302734375,-0.00164794921875,0.003631591796875,0.000396728515625
-0.2137451171875,0.12591552734375,0.03057861328125,-0.0015869140625,0.0035400390625,0.0003662109375
-0.21380615234375,0.125885009765625,0.030029296875,-0.00152587890625,0.003509521484375,0.000396728515625
-0.21331787109375,0.12603759765625,0.0303955078125,-0.001495361328125,0.003387451171875,0.000274658203125
-0.213348388671875,0.125732421875,0.030029296875,-0.001373291015625,0.003204345703125,0.000213623046875
-0.21368408203125,0.125885009765625,0.03021240234375,-0.001434326171875,0.003265380859375,0.000244140625
-0.21380615234375,0.12603759765625,0.029693603515625,-0.00152587890625,0.003173828125,0.000244140625
-0.21392822265625,0.125885009765625,0.030242919921875,-0.001434326171875,0.003143310546875,0.000213623046875
-0.214111328125,0.12591552734375,0.030426025390625,-0.001251220703125,0.003265380859375,0.00018310546875

-0.213958740234375,0.124603271484375,0.0299072265625,-0.001678466796875,0.003814697265625,0.00042724609375
-0.2139892578125,0.125701904296875,0.029754638671875,-0.001556396484375,0.00372314453125,0.00048828125
-0.21405029296875,0.12579345703125,0.03033447265625,-0.001617431640625,0.0037841796875,0.000518798828125
-0.214447021484375,0.125396728515625,0.030303955078125,-0.00152587890625,0.003631591796875,0.000457763671875
-0.21417236328125,0.12542724609375,0.029083251953125,-0.00115966796875,0.00341796875,0.0003662109375
-0.213958740234375,0.12554931640625,0.029022216796875,-0.001068115234375,0.003173828125,0.000396728515625
-0.213531494140625,0.1256103515625,0.0291748046875,-0.00103759765625,0.003173828125,0.000335693359375
-0.21337890625,0.12548828125,0.0303955078125,-0.0013427734375,0.00299072265625,0.0003662109375
-0.21392822265625,0.125030517578125,0.031585693359375,-0.00152587890625,0.003265380859375,0.00042724609375
-0.214508056640625,0.12506103515625,0.0306396484375,-0.00152587890625,0.003204345703125,0.000335693359375
-0.214111328125,0.125274658203125,0.02935791015625,-0.001739501953125,0.00341796875,0.000396728515625
-0.21441650390625,0.124847412109375,0.029388427734375,-0.00146484375,0.0032958984375,0.000396728515625
-0.214019775390625,0.1248779296875,0.02960205078125,-0.001373291015625,0.00335693359375,0.00030517578125
-0.21435546875,0.12451171875,0.0306396484375,-0.001434326171875,0.003326416015625,0.00030517578125
-0.214080810546875,0.12451171875,0.029541015625,-0.001800537109375,0.003448486328125,0.00048828125
-0.214508056640625,0.125030517578125,0.029632568359375,-0.001556396484375,0.003326416015625,0.00042724609375
-0.2139892578125,0.124786376953125,0.02880859375,-0.001190185546875,0.003204345703125,0.0003662109375
-0.214141845703125,0.124755859375,0.029327392578125,-0.0010986328125,0.003082275390625,0.000335693359375
-0.2142333984375,0.12469482421875,0.029632568359375,-0.0013427734375,0.003082275390625,0.0003662109375
-0.2147216796875,0.124359130859375,0.0299072265625,-0.00128173828125,0.00323486328125,0.00030517578125

-0.2137451171875,0.125762939453125,0.02947998046875,-0.00128173828125,0.00311279296875,0.0006103515625
-0.21435546875,0.125762939453125,0.0289306640625,-0.001312255859375,0.00311279296875,0.00067138671875
-0.21478271484375,0.125091552734375,0.029327392578125,-0.001220703125,0.002960205078125,0.00067138671875
-0.215087890625,0.124786376953125,0.029083251953125,-0.001220703125,0.002960205078125,0.0006103515625
-0.214630126953125,0.1248779296875,0.029083251953125,-0.001129150390625,0.002899169921875,0.00048828125
-0.214813232421875,0.124359130859375,0.028533935546875,-0.00091552734375,0.002899169921875,0.000457763671875
-0.21563720703125,0.123809814453125,0.02935791015625,-0.001220703125,0.00286865234375,0.00048828125
-0.21502685546875,0.12371826171875,0.028472900390625,-0.001434326171875,0.00286865234375,0.00048828125
-0.215545654296875,0.123748779296875,0.02813720703125,-0.001617431640625,0.002960205078125,0.000518798828125
-0.2152099609375,0.12353515625,0.028106689453125,-0.00177001953125,0.003082275390625,0.00042724609375
-0.21673583984375,0.122314453125,0.027862548828125,-0.001678466796875,0.00323486328125,0.000335693359375
-0.215087890625,0.12310791015625,0.02764892578125,-0.001739501953125,0.003021240234375,0.0003662109375
-0.214447021484375,0.123992919921875,0.026580810546875,-0.0025634765625,0.00274658203125,0.000579833984375
-0.21551513671875,0.12371826171875,0.02679443359375,-0.00384521484375,0.00238037109375,0.000732421875
-0.215972900390625,0.12322998046875,0.027557373046875,-0.004425048828125,0.002410888671875,0.0008544921875
-0.213470458984375,0.12591552734375,0.0284423828125,-0.005126953125,0.0025634765625,0.001007080078125
-0.216094970703125,0.124603271484375,0.02960205078125,-0.00482177734375,0.002716064453125,0.0008544921875
-0.218780517578125,0.121429443359375,0.024749755859375,-0.005950927734375,0.00201416015625,0.00079345703125
-0.21539306640625,0.123809814453125,0.026123046875,-0.006561279296875,0.001922607421875,0.001007080078125
-0.2183837890625,0.120880126953125,0.028533935546875,-0.005584716796875,0.002471923828125,0.00079345703125

-0.217254638671875,0.122589111328125,0.0234375,-0.0030517578125,0.00341796875,0.000274658203125
-0.217254638671875,0.122528076171875,0.02374267578125,-0.0018310546875,0.004119873046875,0.000244140625
-0.217559814453125,0.12237548828125,0.023651123046875,-0.00152587890625,0.004150390625,0.000244140625
-0.216949462890625,0.1221923828125,0.0228271484375,-0.0010986328125,0.0040283203125,0.0001220703125
-0.216796875,0.1231689453125,0.0242919921875,0.00054931640625,0.0040283203125,-6.103515625e-05
-0.21630859375,0.1231689453125,0.02447509765625,0.0009765625,0.004241943359375,-0.000152587890625
-0.216094970703125,0.12347412109375,0.0250244140625,0.00140380859375,0.004425048828125,-0.00018310546875
-0.215728759765625,0.12322998046875,0.02410888671875,0.001434326171875,0.004913330078125,-0.000213623046875
-0.215789794921875,0.12359619140625,0.02374267578125,0.001129150390625,0.0050048828125,-0.00030517578125
-0.215606689453125,0.124114990234375,0.02410888671875,0.001129150390625,0.005126953125,-0.000274658203125
-0.215911865234375,0.123687744140625,0.024658203125,0.0010986328125,0.005157470703125,-0.000274658203125
-0.215972900390625,0.1234130859375,0.025482177734375,0.000823974609375,0.004974365234375,-0.000244140625
-0.21624755859375,0.12310791015625,0.025115966796875,0.000640869140625,0.005157470703125,-0.00018310546875
-0.215362548828125,0.124237060546875,0.025634765625,0.000213623046875,0.00506591796875,-0.000152587890625
-0.214935302734375,0.1246337890625,0.02685546875,-0.000152587890625,0.004852294921875,6.103515625e-05
-0.21466064453125,0.12451171875,0.026123046875,-0.00030517578125,0.00482177734375,3.0517578125e-05
-0.215301513671875,0.12481689453125,0.025726318359375,-0.000823974609375,0.00469970703125,6.103515625e-05
-0.215118408203125,0.124237060546875,0.02642822265625,-0.001129150390625,0.004608154296875,0.00018310546875
-0.215057373046875,0.12396240234375,0.026580810546875,-0.00103759765625,0.0045166015625,6.103515625e-05
-0.215728759765625,0.1240234375,0.027069091796875,-0.00091552734375,0.00433349609375,9.1552734375e-05

-0.214691162109375,0.124267578125,0.0277099609375,-0.00201416015625,0.003509521484375,9.1552734375e-05
-0.214813232421875,0.12451171875,0.027923583984375,-0.002105712890625,0.00335693359375,9.1552734375e-05
-0.21484375,0.12445068359375,0.028839111328125,-0.00213623046875,0.003326416015625,0.000152587890625
-0.215301513671875,0.124420166015625,0.02813720703125,-0.002227783203125,0.00335693359375,0.00030517578125
-0.215087890625,0.1241455078125,0.02764892578125,-0.002288818359375,0.0035400390625,0.00030517578125
-0.21563720703125,0.1240234375,0.02728271484375,-0.002349853515625,0.003662109375,0.000244140625
-0.21514892578125,0.124114990234375,0.0272216796875,-0.0020751953125,0.003814697265625,0.00018310546875
-0.214996337890625,0.124359130859375,0.027313232421875,-0.001617431640625,0.00360107421875,0.000274658203125
-0.215240478515625,0.124359130859375,0.02679443359375,-0.001434326171875,0.003631591796875,0.000213623046875
-0.21575927734375,0.123504638671875,0.027191162109375,-0.001190185546875,0.003692626953125,0.000152587890625
-0.215057373046875,0.124114990234375,0.0277099609375,-0.0008544921875,0.003753662109375,0.0001220703125
-0.214813232421875,0.12457275390625,0.02716064453125,-0.000885009765625,0.003814697265625,0.000152587890625
-0.215423583984375,0.1246337890625,0.028472900390625,-0.000701904296875,0.003875732421875,0.000213623046875
-0.21575927734375,0.124114990234375,0.028533935546875,-0.00067138671875,0.00408935546875,0.0001220703125
-0.21563720703125,0.1239013671875,0.02813720703125,-0.000701904296875,0.004150390625,6.103515625e-05
-0.214874267578125,0.124176025390625,0.027130126953125,-0.0006103515625,0.004302978515625,0.00018310546875
-0.214996337890625,0.12420654296875,0.02703857421875,-0.00048828125,0.00421142578125,9.1552734375e-05
-0.2149658203125,0.124542236328125,0.027923583984375,-0.000579833984375,0.00396728515625,9.1552734375e-05
-0.215576171875,0.124420166015625,0.028564453125,-0.000701904296875,0.00384521484375,6.103515625e-05
-0.215240478515625,0.12359619140625,0.02813720703125,-0.000518798828125,0.0040283203125,9.1552734375e-05

-0.2149658203125,0.12396240234375,0.029693603515625,-0.001007080078125,0.0035400390625,0.0001220703125
-0.214996337890625,0.1239013671875,0.02880859375,-0.001068115234375,0.00347900390625,0.0001220703125
-0.21484375,0.12359619140625,0.02838134765625,-0.0009765625,0.00372314453125,0.0001220703125
-0.214935302734375,0.123870849609375,0.02813720703125,-0.001007080078125,0.00372314453125,0.000152587890625
-0.215301513671875,0.124267578125,0.029144287109375,-0.00103759765625,0.003662109375,0.000152587890625
-0.215301513671875,0.124114990234375,0.029632568359375,-0.00091552734375,0.003570556640625,0.0001220703125
-0.21478271484375,0.12396240234375,0.029876708984375,-0.001007080078125,0.00347900390625,0.000152587890625
-0.21484375,0.124359130859375,0.02899169921875,-0.0009765625,0.003509521484375,0.000213623046875
-0.214752197265625,0.1246337890625,0.0283203125,-0.0010986328125,0.003662109375,0.000152587890625
-0.2149658203125,0.124603271484375,0.028961181640625,-0.001190185546875,0.00372314453125,0.000213623046875
-0.215362548828125,0.123870849609375,0.0294189453125,-0.001251220703125,0.003692626953125,0.000213623046875
-0.215423583984375,0.1239013671875,0.029541015625,-0.00115966796875,0.003662109375,0.000213623046875
-0.2149658203125,0.12396240234375,0.0294189453125,-0.001220703125,0.003662109375,0.000274658203125
-0.21478271484375,0.12408447265625,0.02850341796875,-0.00115966796875,0.003692626953125,0.000213623046875
-0.21533203125,0.123809814453125,0.028961181640625,-0.0009765625,0.00335693359375,0.000244140625
-0.21514892578125,0.12396240234375,0.02984619140625,-0.001007080078125,0.003387451171875,0.000244140625
-0.215301513671875,0.12384033203125,0.028778076171875,-0.001129150390625,0.0035400390625,0.000244140625
-0.215362548828125,0.123565673828125,0.028656005859375,-0.0009765625,0.00372314453125,0.000274658203125
-0.215301513671875,0.123809814453125,0.029144287109375,-0.001068115234375,0.003662109375,0.00030517578125
-0.21539306640625,0.123779296875,0.029876708984375,-0.000823974609375,0.003387451171875,0.00030517578125

-0.216156005859375,0.12371826171875,0.029144287109375,-0.001190185546875,0.003631591796875,0.0003662109375
-0.215362548828125,0.123748779296875,0.029571533203125,-0.001251220703125,0.003662109375,0.0003662109375
-0.215179443359375,0.12335205078125,0.029327392578125,-0.0013427734375,0.003631591796875,0.0003662109375
-0.215911865234375,0.12286376953125,0.02935791015625,-0.001434326171875,0.00390625,0.000457763671875
-0.215606689453125,0.122833251953125,0.02972412109375,-0.00146484375,0.0037841796875,0.0003662109375
-0.21600341796875,0.12298583984375,0.03033447265625,-0.001495361328125,0.003936767578125,0.000396728515625
-0.215423583984375,0.123291015625,0.02935791015625,-0.00140380859375,0.003997802734375,0.0003662109375
-0.215667724609375,0.123687744140625,0.029083251953125,-0.001617431640625,0.00384521484375,0.00042724609375
-0.21575927734375,0.123291015625,0.02947998046875,-0.001617431640625,0.00390625,0.000396728515625
-0.216156005859375,0.122589111328125,0.029998779296875,-0.001617431640625,0.003875732421875,0.0003662109375
-0.216064453125,0.1220703125,0.029632568359375,-0.001708984375,0.0040283203125,0.0003662109375
-0.2158203125,0.122344970703125,0.029632568359375,-0.001861572265625,0.004119873046875,0.000396728515625
-0.21533203125,0.122955322265625,0.031494140625,-0.002227783203125,0.004150390625,0.00054931640625
-0.216461181640625,0.12237548828125,0.03192138671875,-0.00201416015625,0.003875732421875,0.0003662109375
-0.21533203125,0.1229248046875,0.02947998046875,-0.0020751953125,0.00372314453125,0.000457763671875
-0.215057373046875,0.12298583984375,0.0284423828125,-0.001983642578125,0.00384521484375,0.000518798828125
-0.21466064453125,0.123565673828125,0.029449462890625,-0.00213623046875,0.003936767578125,0.00042724609375
-0.215484619140625,0.123382568359375,0.0299072265625,-0.002105712890625,0.003814697265625,0.00048828125
-0.216033935546875,0.122833251953125,0.030609130859375,-0.001922607421875,0.003662109375,0.000396728515625
-0.216217041015625,0.12225341796875,0.029754638671875,-0.001617431640625,0.0035400390625,0.00030517578125

-0.215484619140625,0.122955322265625,0.030670166015625,-0.001556396484375,0.003936767578125,9.1552734375e-05
-0.215423583984375,0.1234130859375,0.029449462890625,-0.001434326171875,0.004058837890625,9.1552734375e-05
-0.21624755859375,0.123260498046875,0.0301513671875,-0.00146484375,0.003997802734375,0.000213623046875
-0.215728759765625,0.122955322265625,0.030242919921875,-0.001434326171875,0.003753662109375,6.103515625e-05
-0.216033935546875,0.12249755859375,0.030975341796875,-0.00128173828125,0.00360107421875,6.103515625e-05
-0.215057373046875,0.123321533203125,0.029876708984375,-0.0013427734375,0.00372314453125,3.0517578125e-05
-0.215850830078125,0.123260498046875,0.0299072265625,-0.00152587890625,0.003570556640625,6.103515625e-05
-0.21417236328125,0.123931884765625,0.030120849609375,-0.001678466796875,0.003448486328125,0.0
-0.215911865234375,0.1236572265625,0.03021240234375,-0.00177001953125,0.00335693359375,6.103515625e-05
-0.215545654296875,0.123199462890625,0.030029296875,-0.001861572265625,0.00323486328125,0.0
-0.2149658203125,0.122589111328125,0.0296630859375,-0.001678466796875,0.0030517578125,-3.0517578125e-05
-0.214935302734375,0.123138427734375,0.0291748046875,-0.0015869140625,0.0030517578125,9.1552734375e-05
-0.2147216796875,0.124420166015625,0.0296630859375,-0.00189208984375,0.002593994140625,6.103515625e-05
-0.215057373046875,0.124420166015625,0.031158447265625,-0.001983642578125,0.00238037109375,6.103515625e-05
-0.215179443359375,0.1236572265625,0.03167724609375,-0.001739501953125,0.0023193359375,0.0
-0.21435546875,0.1239013671875,0.02825927734375,-0.001708984375,0.00238037109375,-6.103515625e-05
-0.2147216796875,0.12408447265625,0.030242919921875,-0.00146484375,0.002288818359375,-3.0517578125e-05
-0.21502685546875,0.12353515625,0.028961181640625,-0.001983642578125,0.002410888671875,-3.0517578125e-05
-0.214813232421875,0.123443603515625,0.02825927734375,-0.002197265625,0.002288818359375,-0.0001220703125
-0.214691162109375,0.124267578125,0.028350830078125,-0.00238037109375,0.00225830078125,-9.1552734375e-05

-0.216888427734375,0.120513916015625,0.027923583984375,-0.001556396484375,0.003082275390625,-0.00042724609375
-0.216766357421875,0.1209716796875,0.0269775390625,-0.001373291015625,0.002777099609375,-0.000457763671875
-0.216644287109375,0.121826171875,0.02667236328125,-0.0013427734375,0.00262451171875,-0.00042724609375
-0.21649169921875,0.12249755859375,0.02752685546875,-0.00164794921875,0.00201416015625,-0.000274658203125
-0.216064453125,0.12322998046875,0.027679443359375,-0.001617431640625,0.002197265625,-9.1552734375e-05
-0.21630859375,0.12255859375,0.02740478515625,-0.00152587890625,0.001922607421875,-6.103515625e-05
-0.215118408203125,0.124481201171875,0.026702880859375,-0.001251220703125,0.001129150390625,0.000152587890625
-0.215545654296875,0.1248779296875,0.0262451171875,-0.000762939453125,0.00128173828125,0.00018310546875
-0.213714599609375,0.1259765625,0.025970458984375,-0.000457763671875,0.001251220703125,9.1552734375e-05
-0.213653564453125,0.12646484375,0.026580810546875,0.000335693359375,0.00115966796875,3.0517578125e-05
-0.21343994140625,0.1270751953125,0.024566650390625,0.000885009765625,0.00079345703125,-0.000152587890625
-0.213104248046875,0.12744140625,0.024566650390625,0.00140380859375,0.000885009765625,-0.00018310546875
-0.2130126953125,0.127197265625,0.025054931640625,0.001556396484375,0.000762939453125,-0.000213623046875
-0.212799072265625,0.127227783203125,0.025482177734375,0.001434326171875,0.000823974609375,-0.00030517578125
-0.2139892578125,0.127349853515625,0.02593994140625,0.00115966796875,0.001190185546875,-0.000274658203125
-0.21502685546875,0.125946044921875,0.024749755859375,0.001190185546875,0.001220703125,-0.00030517578125
-0.21563720703125,0.12420654296875,0.0235595703125,0.00115966796875,0.00146484375,-0.000335693359375
-0.2147216796875,0.125396728515625,0.0233154296875,0.001220703125,0.00146484375,-0.000335693359375
-0.2149658203125,0.124481201171875,0.02313232421875,0.001129150390625,0.00128173828125,-0.000396728515625
-0.21575927734375,0.124176025390625,0.02630615234375,0.001434326171875,0.0003662109375,-0.00042724609375

-0.215301513671875,0.123016357421875,0.02337646484375,0.001190185546875,0.001251220703125,-0.000579833984375
-0.21746826171875,0.121124267578125,0.0220947265625,0.001129150390625,0.00103759765625,-0.00054931640625
-0.216766357421875,0.122039794921875,0.021270751953125,0.000518798828125,0.000579833984375,-0.00048828125
-0.214874267578125,0.123565673828125,0.021942138671875,0.000244140625,0.000457763671875,-0.000213623046875
-0.21490478515625,0.124176025390625,0.022552490234375,-0.000213623046875,0.000152587890625,0.0001220703125
-0.2152099609375,0.124755859375,0.022613525390625,-0.000213623046875,6.103515625e-05,0.000213623046875
-0.215362548828125,0.125091552734375,0.023223876953125,-0.0001220703125,0.000213623046875,0.000335693359375
-0.215911865234375,0.12518310546875,0.023529052734375,-0.0001220703125,0.000457763671875,0.000244140625
-0.2178955078125,0.12432861328125,0.023773193359375,-0.000274658203125,0.001129150390625,0.000213623046875
-0.21502685546875,0.125,0.022613525390625,0.00762939453125,0.001373291015625,3.0517578125e-05
-0.214996337890625,0.12518310546875,0.02099609375,9.1552734375e-05,0.001495361328125,0.0
-0.215728759765625,0.124786376953125,0.02154541015625,0.000213623046875,0.00146484375,-0.000152587890625
-0.2164306640625,0.1240234375,0.021270751953125,0.0001220703125,0.00140380859375,-0.000152587890625
-0.216400146484375,0.123992919921875,0.021697998046875,0.000152587890625,0.001312255859375,-0.0001220703125
-0.216064453125,0.124114990234375,0.021270751953125,0.000213623046875,0.001312255859375,-3.0517578125e-05
-0.216156005859375,0.1240234375,0.02056884765625,0.00018310546875,0.0013427734375,0.0
-0.21636962890625,0.123443603515625,0.021240234375,0.000244140625,0.001373291015625,-3.0517578125e-05
-0.216949462890625,0.122772216796875,0.02197265625,0.00030517578125,0.001373291015625,-3.0517578125e-05
-0.21759033203125,0.122344970703125,0.020904541015625,0.00042724609375,0.001495361328125,-0.0001220703125
-0.21734619140625,0.12237548828125,0.0201416015625,0.000518798828125,0.001495361328125,-0.000213623046875

-0.2176513671875,0.119293212890625,0.019195556640625,0.00054931640625,0.00213623046875,-0.000244140625
-0.2178955078125,0.12054443359375,0.019622802734375,0.0,0.00238037109375,-3.0517578125e-05
-0.21722412109375,0.121307373046875,0.01898193359375,-0.0001220703125,0.0025634765625,3.0517578125e-05
-0.217498779296875,0.120880126953125,0.0205078125,-0.00030517578125,0.002777099609375,6.103515625e-05
-0.216278076171875,0.123016357421875,0.0198974609375,-0.001312255859375,0.00347900390625,0.00042724609375
-0.217681884765625,0.123321533203125,0.018707275390625,-0.0015869140625,0.003509521484375,0.000335693359375
-0.217437744140625,0.123779296875,0.019561767578125,-0.001617431640625,0.0035400390625,0.00030517578125
-0.216522216796875,0.123626708984375,0.019073486328125,-0.0015869140625,0.003448486328125,0.000274658203125
-0.216522216796875,0.1243896484375,0.019500732421875,-0.001678466796875,0.003143310546875,0.000274658203125
-0.2164306640625,0.124114990234375,0.019927978515625,-0.001617431640625,0.0032958984375,0.00018310546875
-0.216888427734375,0.123870849609375,0.018951416015625,-0.00238037109375,0.003814697265625,0.0003662109375
-0.216827392578125,0.12432861328125,0.01947021484375,-0.002655029296875,0.0037841796875,0.00048828125
-0.216522216796875,0.1240234375,0.020233154296875,-0.00286865234375,0.004241943359375,0.000457763671875
-0.2171630859375,0.1246337890625,0.020294189453125,-0.003021240234375,0.004241943359375,0.00030517578125
-0.21673583984375,0.12371826171875,0.018951416015625,-0.003082275390625,0.00433349609375,0.000213623046875
-0.215789794921875,0.1240234375,0.0181884765625,-0.003082275390625,0.004302978515625,0.000213623046875
-0.2152099609375,0.124725341796875,0.018798828125,-0.003265380859375,0.00439453125,0.00030517578125
-0.215850830078125,0.12469482421875,0.018646240234375,-0.00341796875,0.0042724609375,0.0003662109375
-0.216278076171875,0.12408447265625,0.0185546875,-0.00335693359375,0.004119873046875,0.000274658203125
-0.216033935546875,0.12451171875,0.01873779296875,-0.003143310546875,0.003936767578125,0.000274658203125

-0.216156005859375,0.124542236328125,0.0185546875,-0.001739501953125,0.003631591796875,0.0003662109375
-0.216400146484375,0.1236572265625,0.017303466796875,-0.001434326171875,0.003631591796875,0.000274658203125
-0.2166748046875,0.123504638671875,0.01629638671875,-0.00164794921875,0.00384521484375,0.00030517578125
-0.216552734375,0.12347412109375,0.01763916015625,-0.001708984375,0.003936767578125,0.000274658203125
-0.216522216796875,0.124176025390625,0.01824951171875,-0.00152587890625,0.0037841796875,0.000244140625
-0.2161865234375,0.1240234375,0.0186767578125,-0.00140380859375,0.003692626953125,0.000213623046875
-0.216888427734375,0.12396240234375,0.019073486328125,-0.00152587890625,0.003753662109375,9.1552734375e-05
-0.216461181640625,0.12408447265625,0.01904296875,-0.001922607421875,0.004302978515625,9.1552734375e-05
-0.216644287109375,0.12481689453125,0.01885986328125,-0.002105712890625,0.004486083984375,0.0001220703125
-0.216278076171875,0.124755859375,0.018890380859375,-0.002288818359375,0.0045166015625,0.000152587890625
-0.2158203125,0.124786376953125,0.01873779296875,-0.00201416015625,0.00457763671875,3.0517578125e-05
-0.21600341796875,0.12457275390625,0.01824951171875,-0.001922607421875,0.00457763671875,-3.0517578125e-05
-0.21539306640625,0.124847412109375,0.0177001953125,-0.001983642578125,0.004302978515625,0.0
-0.215545654296875,0.125244140625,0.01678466796875,-0.00201416015625,0.003875732421875,-6.103515625e-05
-0.21649169921875,0.124908447265625,0.01922607421875,-0.001953125,0.003753662109375,6.103515625e-05
-0.216644287109375,0.124725341796875,0.02020263671875,-0.001922607421875,0.00360107421875,-3.0517578125e-05
-0.216064453125,0.124725341796875,0.019134521484375,-0.001922607421875,0.00372314453125,9.1552734375e-05
-0.215545654296875,0.124786376953125,0.018463134765625,-0.00189208984375,0.0037841796875,0.0
-0.215850830078125,0.12493896484375,0.01861572265625,-0.001861572265625,0.003753662109375,-6.103515625e-05
-0.21722412109375,0.12469482421875,0.01971435546875,-0.00213623046875,0.00384521484375,0.0

-0.218017578125,0.12213134765625,0.018829345703125,-0.0015869140625,0.0042724609375,-0.000274658203125
-0.2178955078125,0.122100830078125,0.01885986328125,-0.001739501953125,0.004547119140625,-0.000244140625
-0.218597412109375,0.12188720703125,0.01885986328125,-0.001953125,0.004669189453125,-0.000152587890625
-0.2178955078125,0.12158203125,0.01715087890625,-0.002166748046875,0.005340576171875,-0.000152587890625
-0.215667724609375,0.122711181640625,0.016998291015625,-0.001953125,0.005279541015625,-9.1552734375e-05
-0.216705322265625,0.1231689453125,0.018341064453125,-0.002044677734375,0.00531005859375,0.0
-0.2169189453125,0.122802734375,0.017669677734375,-0.002349853515625,0.005401611328125,9.1552734375e-05
-0.216949462890625,0.122833251953125,0.01763916015625,-0.00262451171875,0.005462646484375,0.00018310546875
-0.216461181640625,0.12286376953125,0.018035888671875,-0.0029296875,0.005615234375,0.000274658203125
-0.2177734375,0.122161865234375,0.018402099609375,-0.003082275390625,0.005859375,0.000457763671875
-0.217987060546875,0.12078857421875,0.01885986328125,-0.003204345703125,0.006378173828125,0.000457763671875
-0.217315673828125,0.12152099609375,0.019622802734375,-0.003326416015625,0.006500244140625,0.00054931640625
-0.217132568359375,0.122100830078125,0.0198974609375,-0.003387451171875,0.0067138671875,0.000579833984375
-0.215728759765625,0.123992919921875,0.01922607421875,-0.003387451171875,0.006591796875,0.000701904296875
-0.214935302734375,0.12481689453125,0.019927978515625,-0.003692626953125,0.006744384765625,0.00067138671875
-0.2147216796875,0.125244140625,0.020721435546875,-0.00396728515625,0.006866455078125,0.00067138671875
-0.214813232421875,0.125213623046875,0.0206298828125,-0.00384521484375,0.006988525390625,0.000732421875
-0.21551513671875,0.125244140625,0.021270751953125,-0.003997802734375,0.007080078125,0.000762939453125
-0.215301513671875,0.125213623046875,0.021331787109375,-0.00439453125,0.0072021484375,0.00103759765625
-0.21575927734375,0.125213623046875,0.021942138671875,-0.0045166015625,0.00714111328125,0.000946044921875

-0.21630859375,0.12347412109375,0.025360107421875,-0.006134033203125,0.00885009765625,0.000640869140625
-0.216217041015625,0.123779296875,0.025146484375,-0.006439208984375,0.009033203125,0.000579833984375
-0.214324951171875,0.124969482421875,0.02459716796875,-0.00714111328125,0.009002685546875,0.00042724609375
-0.21417236328125,0.124969482421875,0.0252685546875,-0.00787353515625,0.00848388671875,0.000396728515625
-0.21380615234375,0.126373291015625,0.02490234375,-0.00830078125,0.008392333984375,0.000457763671875
-0.214202880859375,0.127105712890625,0.02490234375,-0.008697509765625,0.008270263671875,0.000732421875
-0.2127685546875,0.128692626953125,0.022796630859375,-0.009735107421875,0.00750732421875,0.001068115234375
-0.21197509765625,0.12933349609375,0.0264892578125,-0.011322021484375,0.00701904296875,0.00103759765625
-0.2132568359375,0.128021240234375,0.0263671875,-0.010345458984375,0.0067138671875,0.000762939453125
-0.212127685546875,0.128692626953125,0.023040771484375,-0.00921630859375,0.0067138671875,0.000762939453125
-0.211669921875,0.12908935546875,0.024749755859375,-0.00823974609375,0.006561279296875,0.000701904296875
-0.2115478515625,0.128631591796875,0.025238037109375,-0.007659912109375,0.00640869140625,0.0006103515625
-0.212554931640625,0.128204345703125,0.025238037109375,-0.006378173828125,0.0068359375,0.000152587890625
-0.21246337890625,0.12908935546875,0.025726318359375,-0.0059814453125,0.00714111328125,6.103515625e-05
-0.21331787109375,0.127777099609375,0.02392578125,-0.005584716796875,0.00714111328125,-3.0517578125e-05
-0.213775634765625,0.126922607421875,0.022674560546875,-0.004913330078125,0.0072021484375,-6.103515625e-05
-0.2142333984375,0.12664794921875,0.021575927734375,-0.00439453125,0.006439208984375,-0.000152587890625
-0.2137451171875,0.12664794921875,0.02154541015625,-0.003204345703125,0.00579833984375,-0.00018310546875
-0.2127685546875,0.1278076171875,0.02325439453125,-0.00244140625,0.005584716796875,-0.0001220703125
-0.21221923828125,0.127960205078125,0.02374267578125,-0.002410888671875,0.0050048828125,-3.0517578125e-05

-0.21295166015625,0.128082275390625,0.023956298828125,0.001190185546875,0.0035400390625,-0.000152587890625
-0.212615966796875,0.1279296875,0.024749755859375,0.00152587890625,0.00311279296875,-0.000152587890625
-0.21234130859375,0.128143310546875,0.025604248046875,0.001739501953125,0.002960205078125,-0.000152587890625
-0.210968017578125,0.12939453125,0.025115966796875,0.001220703125,0.002685546875,-9.1552734375e-05
-0.211029052734375,0.12933349609375,0.025482177734375,0.000946044921875,0.0025634765625,-0.000152587890625
-0.211669921875,0.129119873046875,0.026580810546875,0.00079345703125,0.002532958984375,-9.1552734375e-05
-0.212799072265625,0.1280517578125,0.026947021484375,0.0006103515625,0.00262451171875,-0.0001220703125
-0.2130126953125,0.12811279296875,0.026275634765625,0.000579833984375,0.002410888671875,-0.0001220703125
-0.212188720703125,0.128204345703125,0.025390625,0.000579833984375,0.0023193359375,-0.000152587890625
-0.212310791015625,0.12774658203125,0.025482177734375,0.0006103515625,0.002197265625,-0.0001220703125
-0.212677001953125,0.127349853515625,0.02618408203125,0.0006103515625,0.001922607421875,-0.0001220703125
-0.21368408203125,0.126068115234375,0.02630615234375,0.00067138671875,0.001739501953125,-0.00018310546875
-0.21356201171875,0.126617431640625,0.0257568359375,0.000640869140625,0.001251220703125,-6.103515625e-05
-0.213653564453125,0.126708984375,0.0257568359375,0.000640869140625,0.001251220703125,0.0
-0.213623046875,0.126922607421875,0.026092529296875,0.000579833984375,0.00115966796875,-6.103515625e-05
-0.21295166015625,0.126800537109375,0.027587890625,0.0003662109375,0.00140380859375,-0.0001220703125
-0.21392822265625,0.1253662109375,0.026580810546875,0.000213623046875,0.001678466796875,-0.000152587890625
-0.214263916015625,0.12542724609375,0.025726318359375,3.0517578125e-05,0.0018310546875,-6.103515625e-05
-0.21453857421875,0.125946044921875,0.0257568359375,-0.000274658203125,0.00189208984375,-9.1552734375e-05
-0.214874267578125,0.126190185546875,0.026031494140625,-0.000152587890625,0.001800537109375,-6.103515625e-05

-0.214111328125,0.124908447265625,0.023712158203125,0.00146484375,0.001190185546875,-0.00030517578125
-0.214385986328125,0.12493896484375,0.0240478515625,0.001495361328125,0.001007080078125,-0.00030517578125
-0.214569091796875,0.12518310546875,0.0234375,0.001617431640625,0.000823974609375,-0.00018310546875
-0.2144775390625,0.126190185546875,0.025146484375,0.0015869140625,0.000457763671875,-0.0001220703125
-0.21490478515625,0.125091552734375,0.02435302734375,0.001556396484375,0.00048828125,-0.0001220703125
-0.214996337890625,0.124267578125,0.023895263671875,0.001556396484375,0.00079345703125,-0.0001220703125
-0.21575927734375,0.123046875,0.0245361328125,0.001708984375,0.000885009765625,-0.00018310546875
-0.216033935546875,0.122833251953125,0.024810791015625,0.001739501953125,0.001007080078125,-0.0001220703125
-0.21539306640625,0.123687744140625,0.024749755859375,0.001678466796875,0.00103759765625,-0.000152587890625
-0.215667724609375,0.123687744140625,0.02362060546875,0.00091552734375,0.001556396484375,0.0
-0.215972900390625,0.12371826171875,0.0245361328125,0.0008544921875,0.001800537109375,9.1552734375e-05
-0.216278076171875,0.1231689453125,0.023712158203125,0.00079345703125,0.00201416015625,6.103515625e-05
-0.215301513671875,0.124420166015625,0.024444580078125,0.000640869140625,0.001953125,0.0001220703125
-0.214874267578125,0.12567138671875,0.02386474609375,0.0006103515625,0.001800537109375,0.000152587890625
-0.214111328125,0.126434326171875,0.02447509765625,0.000701904296875,0.00177001953125,0.000152587890625
-0.21539306640625,0.125030517578125,0.02386474609375,0.00030517578125,0.00213623046875,9.1552734375e-05
-0.214569091796875,0.126312255859375,0.024200439453125,0.00018310546875,0.00238037109375,0.000152587890625
-0.21453857421875,0.1268310546875,0.02435302734375,-6.103515625e-05,0.0025634765625,9.1552734375e-05
-0.21484375,0.1263427734375,0.024871826171875,-0.00030517578125,0.0025634765625,3.0517578125e-05
-0.2154541015625,0.1246337890625,0.02435302734375,-0.00042724609375,0.0025634765625,0.000244140625

-0.2152099609375,0.12493896484375,0.023406982421875,-0.0009765625,0.0023193359375,0.000274658203125
-0.215057373046875,0.12493896484375,0.0235595703125,-0.001190185546875,0.002685546875,0.00042724609375
-0.215972900390625,0.12481689453125,0.022674560546875,-0.00140380859375,0.002838134765625,0.000244140625
-0.215911865234375,0.1246337890625,0.022491455078125,-0.001251220703125,0.00274658203125,0.000152587890625
-0.21575927734375,0.1246337890625,0.022491455078125,-0.00103759765625,0.002685546875,0.00018310546875
-0.215301513671875,0.124542236328125,0.022186279296875,-0.000396728515625,0.002349853515625,0.00018310546875
-0.215087890625,0.124847412109375,0.02130126953125,-0.00030517578125,0.002410888671875,9.1552734375e-05
-0.214996337890625,0.124298095703125,0.022186279296875,-0.000396728515625,0.002410888671875,0.0001220703125
-0.215057373046875,0.12420654296875,0.02276611328125,-0.00042724609375,0.002655029296875,0.000152587890625
-0.2159423828125,0.124359130859375,0.023468017578125,-0.0006103515625,0.002960205078125,0.000244140625
-0.21600341796875,0.124267578125,0.023468017578125,-0.000885009765625,0.003173828125,0.00018310546875
-0.21661376953125,0.12469482421875,0.0238037109375,-0.00103759765625,0.00341796875,0.000274658203125
-0.21575927734375,0.125152587890625,0.022735595703125,-0.0020751953125,0.004119873046875,0.00042724609375
-0.21533203125,0.125152587890625,0.021484375,-0.001953125,0.003692626953125,0.000244140625
-0.21417236328125,0.125579833984375,0.020965576171875,-0.001617431640625,0.00335693359375,0.00018310546875
-0.214111328125,0.126190185546875,0.021331787109375,-0.001434326171875,0.00323486328125,0.000274658203125
-0.214508056640625,0.125946044921875,0.022705078125,-0.001678466796875,0.003326416015625,0.000335693359375
-0.2159423828125,0.125030517578125,0.022796630859375,-0.00201416015625,0.003448486328125,0.000396728515625
-0.216064453125,0.124176025390625,0.021881103515625,-0.001983642578125,0.00360107421875,0.00042724609375
-0.216033935546875,0.12384033203125,0.021514892578125,-0.001953125,0.0035400390625,0.0003662109375

-0.215362548828125,0.124755859375,0.021697998046875,-0.00164794921875,0.003570556640625,0.000457763671875
-0.216064453125,0.12432861328125,0.022491455078125,-0.002105712890625,0.0037841796875,0.00048828125
-0.21600341796875,0.124053955078125,0.0223388671875,-0.002166748046875,0.004058837890625,0.00054931640625
-0.21502685546875,0.12591552734375,0.0203857421875,-0.0020751953125,0.004058837890625,0.000457763671875
-0.2144775390625,0.12579345703125,0.021270751953125,-0.001800537109375,0.0035400390625,0.000396728515625
-0.214111328125,0.12646484375,0.020599365234375,-0.001617431640625,0.0035400390625,0.000396728515625
-0.2144775390625,0.126678466796875,0.020782470703125,-0.00177001953125,0.00341796875,0.000457763671875
-0.2149658203125,0.1258544921875,0.022003173828125,-0.00177001953125,0.00341796875,0.00042724609375
-0.215484619140625,0.125091552734375,0.022247314453125,-0.001800537109375,0.00360107421875,0.00048828125
-0.215667724609375,0.125030517578125,0.02093505859375,-0.001678466796875,0.00390625,0.000518798828125
-0.215362548828125,0.125152587890625,0.020660400390625,-0.00189208984375,0.0037841796875,0.00048828125
-0.214935302734375,0.1248779296875,0.0208740234375,-0.00201416015625,0.0037841796875,0.000457763671875
-0.215850830078125,0.12408447265625,0.0208740234375,-0.001922607421875,0.003692626953125,0.00048828125
-0.215850830078125,0.124359130859375,0.02032470703125,-0.0018310546875,0.003570556640625,0.0003662109375
-0.215484619140625,0.124603271484375,0.019622802734375,-0.001739501953125,0.0035400390625,0.00030517578125
-0.215606689453125,0.124908447265625,0.02142333984375,-0.001861572265625,0.003570556640625,0.0003662109375
-0.2161865234375,0.12457275390625,0.0218505859375,-0.001922607421875,0.003753662109375,0.000335693359375
-0.2161865234375,0.124359130859375,0.0216064453125,-0.001983642578125,0.00390625,0.0003662109375
-0.215667724609375,0.124603271484375,0.020660400390625,-0.001983642578125,0.003875732421875,0.000213623046875
-0.215301513671875,0.124542236328125,0.0216064453125,-0.001922607421875,0.00390625,0.00018310546875

-0.216705322265625,0.12371826171875,0.020416259765625,-0.0018310546875,0.003387451171875,0.00048828125
-0.214996337890625,0.124114990234375,0.02252197265625,-0.001922607421875,0.003387451171875,0.00054931640625
-0.21563720703125,0.124298095703125,0.022796630859375,-0.0018310546875,0.003631591796875,0.00048828125
-0.21502685546875,0.12493896484375,0.020538330078125,-0.001983642578125,0.0037841796875,0.0006103515625
-0.214874267578125,0.12554931640625,0.020233154296875,-0.002166748046875,0.00396728515625,0.000640869140625
-0.21533203125,0.12615966796875,0.021026611328125,-0.002349853515625,0.00396728515625,0.000518798828125
-0.216094970703125,0.12457275390625,0.0203857421875,-0.00189208984375,0.003662109375,0.000274658203125
-0.216094970703125,0.123992919921875,0.0198974609375,-0.00152587890625,0.00341796875,0.000274658203125
-0.215911865234375,0.124237060546875,0.019744873046875,-0.001373291015625,0.00311279296875,0.0003662109375
-0.215240478515625,0.124542236328125,0.021209716796875,-0.001190185546875,0.003173828125,0.0003662109375
-0.21527099609375,0.12445068359375,0.020599365234375,-0.00140380859375,0.003204345703125,0.000396728515625
-0.2156982421875,0.124420166015625,0.021331787109375,-0.001495361328125,0.003204345703125,0.000335693359375
-0.216094970703125,0.124114990234375,0.02069091796875,-0.001678466796875,0.003265380859375,0.000335693359375
-0.2164306640625,0.124114990234375,0.02069091796875,-0.00189208984375,0.003448486328125,0.000335693359375
-0.2166748046875,0.123809814453125,0.020172119140625,-0.00201416015625,0.0035400390625,0.000274658203125
-0.216705322265625,0.123291015625,0.02032470703125,-0.00225830078125,0.003631591796875,0.00030517578125
-0.217376708984375,0.122283935546875,0.020599365234375,-0.0020751953125,0.003387451171875,0.000244140625
-0.217010498046875,0.122802734375,0.020904541015625,-0.001800537109375,0.0030517578125,0.000213623046875
-0.21636962890625,0.123687744140625,0.020111083984375,-0.001556396484375,0.003143310546875,0.00018310546875
-0.21624755859375,0.123870849609375,0.02069091796875,-0.001708984375,0.003448486328125,0.000213623046875

-0.216278076171875,0.12408447265625,0.01971435546875,-0.000640869140625,0.002777099609375,0.00018310546875
-0.215240478515625,0.124847412109375,0.019775390625,-0.00042724609375,0.002685546875,0.00018310546875
-0.215667724609375,0.12469482421875,0.01873779296875,-0.0003662109375,0.002777099609375,6.103515625e-05
-0.2164306640625,0.1240234375,0.018768310546875,-0.000244140625,0.002716064453125,0.0
-0.215606689453125,0.124542236328125,0.01910400390625,-0.000152587890625,0.0023193359375,-6.103515625e-05
-0.215301513671875,0.125152587890625,0.018646240234375,0.000396728515625,0.00225830078125,-0.00018310546875
-0.21514892578125,0.12567138671875,0.0185546875,0.0006103515625,0.00213623046875,-0.000152587890625
-0.216217041015625,0.124664306640625,0.018646240234375,0.00048828125,0.001983642578125,-0.00018310546875
-0.21673583984375,0.124176025390625,0.0191650390625,0.000396728515625,0.0020751953125,-0.00018310546875
-0.21820068359375,0.122314453125,0.0189208984375,0.000244140625,0.002197265625,-0.00030517578125
-0.217864990234375,0.121673583984375,0.018829345703125,0.0003662109375,0.00238037109375,-0.00030517578125
-0.2176513671875,0.122222900390625,0.019439697265625,6.103515625e-05,0.002532958984375,-0.000335693359375
-0.216796875,0.122772216796875,0.01947021484375,-9.1552734375e-05,0.002685546875,-0.00018310546875
-0.217315673828125,0.123077392578125,0.01934814453125,-0.0001220703125,0.00274658203125,-0.0001220703125
-0.217376708984375,0.122467041015625,0.018768310546875,-0.0003662109375,0.00274658203125,-0.000244140625
-0.217254638671875,0.122955322265625,0.019287109375,-0.000518798828125,0.00274658203125,-0.000244140625
-0.2176513671875,0.12200927734375,0.01971435546875,-0.00042724609375,0.002899169921875,-0.000213623046875
-0.217864990234375,0.121612548828125,0.020477294921875,-0.0006103515625,0.002838134765625,-0.000244140625
-0.21771240234375,0.121551513671875,0.020751953125,-0.000762939453125,0.00311279296875,-0.000274658203125
-0.21636962890625,0.123138427734375,0.019775390625,-0.001220703125,0.003570556640625,-0.000213623046875

-0.2176513671875,0.121856689453125,0.0205078125,-0.003082275390625,0.00537109375,-0.000152587890625
-0.21630859375,0.12225341796875,0.0206298828125,-0.00323486328125,0.00579833984375,-0.0001220703125
-0.216796875,0.122039794921875,0.020294189453125,-0.003326416015625,0.005889892578125,-0.000152587890625
-0.216400146484375,0.1234130859375,0.0220947265625,-0.0032958984375,0.005645751953125,-0.0001220703125
-0.216461181640625,0.123687744140625,0.0228271484375,-0.00335693359375,0.00579833984375,0.0
-0.216064453125,0.1240234375,0.02276611328125,-0.003448486328125,0.0059814453125,3.0517578125e-05
-0.215789794921875,0.123748779296875,0.020721435546875,-0.00360107421875,0.006500244140625,0.0
-0.2164306640625,0.12371826171875,0.0211181640625,-0.00384521484375,0.006622314453125,6.103515625e-05
-0.215911865234375,0.124725341796875,0.020477294921875,-0.0037841796875,0.00653076171875,0.000213623046875
-0.211944580078125,0.129180908203125,0.021026611328125,-0.00311279296875,0.005615234375,0.000274658203125
-0.212005615234375,0.13043212890625,0.02191162109375,-0.002777099609375,0.005279541015625,0.000244140625
-0.21270751953125,0.129608154296875,0.021026611328125,-0.00244140625,0.005218505859375,0.000244140625
-0.21246337890625,0.129180908203125,0.0216064453125,-0.002288818359375,0.00506591796875,0.000152587890625
-0.213592529296875,0.12939453125,0.0203857421875,-0.002349853515625,0.004913330078125,0.000213623046875
-0.21295166015625,0.130035400390625,0.02392578125,-0.002532958984375,0.004058837890625,6.103515625e-05
-0.21282958984375,0.127960205078125,0.020843505859375,-0.00079345703125,0.00323486328125,-0.000213623046875
-0.2127685546875,0.127655029296875,0.021453857421875,-0.000732421875,0.003204345703125,-0.000213623046875
-0.213623046875,0.12713623046875,0.022216796875,-0.000762939453125,0.003143310546875,-0.000244140625
-0.215423583984375,0.1258544921875,0.024139404296875,-0.001495361328125,0.00347900390625,-0.000244140625
-0.21575927734375,0.124786376953125,0.02386474609375,-0.00177001953125,0.003448486328125,-0.0001220703125

-0.21429443359375,0.126220703125,0.022247314453125,-0.001678466796875,0.003753662109375,0.000274658203125
-0.21429443359375,0.126251220703125,0.021942138671875,-0.001739501953125,0.003875732421875,0.0003662109375
-0.214202880859375,0.125885009765625,0.02044677734375,-0.0018310546875,0.004119873046875,0.000213623046875
-0.2139892578125,0.1275634765625,0.02093505859375,-0.002044677734375,0.00396728515625,0.000213623046875
-0.214111328125,0.12774658203125,0.02178955078125,-0.0020751953125,0.0037841796875,0.000244140625
-0.213623046875,0.1279296875,0.022552490234375,-0.001983642578125,0.0037841796875,0.000274658203125
-0.214019775390625,0.12603759765625,0.0205078125,-0.001434326171875,0.003814697265625,0.00018310546875
-0.213958740234375,0.126617431640625,0.01953125,-0.00140380859375,0.0037841796875,0.00018310546875
-0.213653564453125,0.1268310546875,0.01983642578125,-0.001434326171875,0.003631591796875,0.0001220703125
-0.214691162109375,0.12646484375,0.022796630859375,-0.0009765625,0.00323486328125,0.000152587890625
-0.21429443359375,0.125823974609375,0.022796630859375,-0.00079345703125,0.0032958984375,0.000213623046875
-0.21453857421875,0.125762939453125,0.02191162109375,-0.00079345703125,0.00347900390625,0.00018310546875
-0.214385986328125,0.12542724609375,0.02081298828125,-0.001129150390625,0.003448486328125,0.000152587890625
-0.21484375,0.1256103515625,0.020904541015625,-0.001129150390625,0.00347900390625,0.000213623046875
-0.214935302734375,0.125579833984375,0.021636962890625,-0.001220703125,0.00347900390625,0.00030517578125
-0.215118408203125,0.12603759765625,0.021728515625,-0.001068115234375,0.00323486328125,0.0003662109375
-0.215301513671875,0.125518798828125,0.02117919921875,-0.0009765625,0.003204345703125,0.000274658203125
-0.215576171875,0.124908447265625,0.021331787109375,-0.001007080078125,0.0032958984375,0.00030517578125
-0.21484375,0.12493896484375,0.020965576171875,-0.0010986328125,0.003570556640625,0.000213623046875
-0.21405029296875,0.126251220703125,0.02178955078125,-0.001129150390625,0.00341796875,0.000244140625

-0.213104248046875,0.127593994140625,0.022308349609375,-0.00048828125,0.002685546875,0.000152587890625
-0.21368408203125,0.12744140625,0.022674560546875,-0.000640869140625,0.00274658203125,6.103515625e-05
-0.214019775390625,0.126678466796875,0.02264404296875,-0.00079345703125,0.00286865234375,3.0517578125e-05
-0.214599609375,0.12628173828125,0.022308349609375,-0.00079345703125,0.002838134765625,0.0
-0.215362548828125,0.124908447265625,0.023040771484375,-0.000823974609375,0.002899169921875,0.0001220703125
-0.2158203125,0.124420166015625,0.022491455078125,-0.00079345703125,0.00299072265625,9.1552734375e-05
-0.215911865234375,0.1241455078125,0.02166748046875,-0.000732421875,0.00311279296875,0.000152587890625
-0.215423583984375,0.124053955078125,0.021270751953125,-0.000732421875,0.0032958984375,0.000213623046875
-0.215057373046875,0.1239013671875,0.020751953125,-0.00091552734375,0.00323486328125,0.0003662109375
-0.215545654296875,0.123870849609375,0.02093505859375,-0.00115966796875,0.003204345703125,0.00030517578125
-0.2156982421875,0.123992919921875,0.02093505859375,-0.001312255859375,0.003387451171875,0.000335693359375
-0.217315673828125,0.123992919921875,0.021636962890625,-0.001708984375,0.003692626953125,0.00030517578125
-0.218353271484375,0.122772216796875,0.021636962890625,-0.001922607421875,0.004150390625,0.000244140625
-0.218536376953125,0.12200927734375,0.021392822265625,-0.002166748046875,0.004302978515625,0.00030517578125
-0.216644287109375,0.1229248046875,0.02105712890625,-0.001953125,0.0045166015625,0.000335693359375
-0.215850830078125,0.12408447265625,0.021148681640625,-0.001983642578125,0.004608154296875,0.00030517578125
-0.215179443359375,0.124755859375,0.021484375,-0.002197265625,0.004669189453125,0.00030517578125
-0.215362548828125,0.12481689453125,0.0223388671875,-0.002593994140625,0.0048828125,0.00030517578125
-0.215667724609375,0.124969482421875,0.0224609375,-0.0025634765625,0.004730224609375,0.00030517578125
-0.215850830078125,0.125030517578125,0.022735595703125,-0.00244140625,0.004638671875,0.000244140625

-0.21514892578125,0.126373291015625,0.021392822265625,-0.001739501953125,0.003936767578125,0.000244140625
-0.214752197265625,0.126220703125,0.02154541015625,-0.0015869140625,0.003875732421875,0.00018310546875
-0.2132568359375,0.127349853515625,0.02081298828125,-0.00128173828125,0.003631591796875,0.000274658203125
-0.2127685546875,0.127685546875,0.02099609375,-0.001312255859375,0.003509521484375,0.000274658203125
-0.212799072265625,0.12738037109375,0.02142333984375,-0.001556396484375,0.003509521484375,0.000335693359375
-0.21368408203125,0.1265869140625,0.021575927734375,-0.00152587890625,0.003570556640625,0.0001220703125
-0.21685791015625,0.12310791015625,0.023101806640625,-0.00146484375,0.003692626953125,0.000213623046875
-0.21661376953125,0.123260498046875,0.022308349609375,-0.001373291015625,0.0037841796875,0.0001220703125
-0.216522216796875,0.1234130859375,0.022308349609375,-0.00140380859375,0.003662109375,0.000152587890625
-0.2164306640625,0.123260498046875,0.021881103515625,-0.00152587890625,0.0037841796875,0.00018310546875
-0.215972900390625,0.124114990234375,0.022247314453125,-0.001556396484375,0.003936767578125,0.00018310546875
-0.21612548828125,0.124267578125,0.022705078125,-0.001708984375,0.00396728515625,0.000244140625
-0.2158203125,0.124420166015625,0.02166748046875,-0.00140380859375,0.00390625,0.00018310546875
-0.215301513671875,0.124725341796875,0.020599365234375,-0.001434326171875,0.004119873046875,0.0001220703125
-0.214935302734375,0.125152587890625,0.020050048828125,-0.001220703125,0.003997802734375,0.000152587890625
-0.21417236328125,0.125213623046875,0.02069091796875,-0.001068115234375,0.003662109375,0.000213623046875
-0.21435546875,0.12554931640625,0.0211181640625,-0.001007080078125,0.00347900390625,0.000244140625
-0.214508056640625,0.125518798828125,0.02191162109375,-0.000823974609375,0.00335693359375,0.000244140625
-0.21527099609375,0.125274658203125,0.022064208984375,-0.00079345703125,0.003265380859375,0.00018310546875
-0.215789794921875,0.124755859375,0.023590087890625,-0.001007080078125,0.00335693359375,0.000244140625

-0.21484375,0.124908447265625,0.02349853515625,-0.001434326171875,0.00384521484375,0.000274658203125
-0.21563720703125,0.12493896484375,0.024261474609375,-0.001495361328125,0.003753662109375,0.000213623046875
-0.21588134765625,0.124786376953125,0.024169921875,-0.0018310546875,0.004119873046875,0.000244140625
-0.21636962890625,0.124053955078125,0.02435302734375,-0.0020751953125,0.004302978515625,0.000244140625
-0.2166748046875,0.123138427734375,0.02490234375,-0.002227783203125,0.004150390625,0.000213623046875
-0.21624755859375,0.123046875,0.025238037109375,-0.002105712890625,0.004425048828125,0.000213623046875
-0.215728759765625,0.123779296875,0.024169921875,-0.00225830078125,0.00439453125,0.000274658203125
-0.215606689453125,0.124298095703125,0.0244140625,-0.00238037109375,0.00445556640625,0.000396728515625
-0.21533203125,0.12481689453125,0.02410888671875,-0.0025634765625,0.004608154296875,0.00030517578125
-0.2147216796875,0.124908447265625,0.02313232421875,-0.002532958984375,0.0045166015625,0.000396728515625
-0.214019775390625,0.12554931640625,0.0216064453125,-0.00238037109375,0.004364013671875,0.00042724609375
-0.213714599609375,0.126007080078125,0.02191162109375,-0.001983642578125,0.004150390625,0.0003662109375
-0.214019775390625,0.126251220703125,0.022705078125,-0.001861572265625,0.003814697265625,0.00042724609375
-0.214111328125,0.12603759765625,0.023529052734375,-0.002044677734375,0.0040283203125,0.00042724609375
-0.214874267578125,0.125244140625,0.0238037109375,-0.00225830078125,0.004058837890625,0.00042724609375
-0.215545654296875,0.1248779296875,0.02325439453125,-0.00244140625,0.004150390625,0.0003662109375
-0.2149658203125,0.124755859375,0.023284912109375,-0.002410888671875,0.004364013671875,0.0003662109375
-0.21490478515625,0.124603271484375,0.0233154296875,-0.00238037109375,0.00445556640625,0.0003662109375
-0.214874267578125,0.124603271484375,0.023529052734375,-0.002410888671875,0.004486083984375,0.0003662109375
-0.215728759765625,0.124908447265625,0.0238037109375,-0.00250244140625,0.004852294921875,0.000518798828125

-0.21478271484375,0.124481201171875,0.02349853515625,-0.001861572265625,0.00421142578125,0.00030517578125
-0.2144775390625,0.12481689453125,0.022857666015625,-0.001800537109375,0.004150390625,0.000274658203125
-0.214141845703125,0.125030517578125,0.023223876953125,-0.00189208984375,0.0042724609375,0.0003662109375
-0.216766357421875,0.122802734375,0.023284912109375,-0.0023193359375,0.004486083984375,0.00054931640625
-0.216766357421875,0.122344970703125,0.02301025390625,-0.00238037109375,0.0047607421875,0.00054931640625
-0.217498779296875,0.122222900390625,0.022369384765625,-0.00250244140625,0.005035400390625,0.0006103515625
-0.214447021484375,0.1240234375,0.022430419921875,-0.00262451171875,0.0050048828125,0.000518798828125
-0.214385986328125,0.124786376953125,0.022216796875,-0.0025634765625,0.00494384765625,0.000579833984375
-0.21417236328125,0.125244140625,0.02252197265625,-0.002593994140625,0.004730224609375,0.0006103515625
-0.214691162109375,0.12579345703125,0.023895263671875,-0.002410888671875,0.0045166015625,0.000579833984375
-0.215057373046875,0.125244140625,0.024200439453125,-0.0023193359375,0.0045166015625,0.00048828125
-0.2154541015625,0.125030517578125,0.024139404296875,-0.002227783203125,0.004638671875,0.00048828125
-0.214599609375,0.125457763671875,0.02423095703125,-0.0023193359375,0.004791259765625,0.000579833984375
-0.21417236328125,0.12579345703125,0.024658203125,-0.002410888671875,0.00482177734375,0.000640869140625
-0.21380615234375,0.12603759765625,0.02496337890625,-0.00238037109375,0.004669189453125,0.00067138671875
-0.214630126953125,0.126251220703125,0.02471923828125,-0.002349853515625,0.004638671875,0.000640869140625
-0.214447021484375,0.12652587890625,0.023895263671875,-0.0020751953125,0.004058837890625,0.00054931640625
-0.21392822265625,0.126220703125,0.024505615234375,-0.00152587890625,0.00384521484375,0.000518798828125
-0.21417236328125,0.126251220703125,0.02496337890625,-0.001495361328125,0.003570556640625,0.000396728515625
-0.214019775390625,0.126068115234375,0.0252685546875,-0.001495361328125,0.003509521484375,0.0003662109375

-0.216644287109375,0.1236572265625,0.025360107421875,-0.00164794921875,0.003509521484375,0.000335693359375
-0.217010498046875,0.12237548828125,0.024383544921875,-0.00164794921875,0.003509521484375,0.000213623046875
-0.217010498046875,0.121429443359375,0.023681640625,-0.001495361328125,0.003570556640625,0.00018310546875
-0.21685791015625,0.121307373046875,0.024169921875,-0.0013427734375,0.00360107421875,0.000244140625
-0.21630859375,0.122100830078125,0.0263671875,-0.00140380859375,0.003387451171875,0.000274658203125
-0.216094970703125,0.122406005859375,0.026611328125,-0.00146484375,0.0035400390625,0.00030517578125
-0.215728759765625,0.123291015625,0.02581787109375,-0.001617431640625,0.003662109375,0.000335693359375
-0.21575927734375,0.1241455078125,0.024688720703125,-0.001739501953125,0.003662109375,0.000396728515625
-0.2161865234375,0.12420654296875,0.02471923828125,-0.00164794921875,0.003570556640625,0.000335693359375
-0.216094970703125,0.124053955078125,0.02618408203125,-0.001373291015625,0.0032958984375,0.000244140625
-0.21612548828125,0.124114990234375,0.025421142578125,-0.001373291015625,0.003265380859375,0.000274658203125
-0.215728759765625,0.124359130859375,0.02532958984375,-0.001495361328125,0.00323486328125,0.000274658203125
-0.214996337890625,0.12469482421875,0.024627685546875,-0.00152587890625,0.00323486328125,0.00030517578125
-0.21551513671875,0.124847412109375,0.02392578125,-0.001434326171875,0.00323486328125,0.000274658203125
-0.215118408203125,0.12493896484375,0.02447509765625,-0.00152587890625,0.003173828125,0.000213623046875
-0.215240478515625,0.125030517578125,0.0244140625,-0.00128173828125,0.003021240234375,0.00018310546875
-0.215057373046875,0.124847412109375,0.02423095703125,-0.00103759765625,0.0028076171875,0.0
-0.215606689453125,0.12493896484375,0.023956298828125,-0.001220703125,0.0028076171875,-9.1552734375e-05
-0.215667724609375,0.12445068359375,0.024627685546875,-0.001220703125,0.002716064453125,-0.000152587890625
-0.21527099609375,0.123748779296875,0.02349853515625,-0.00115966796875,0.002777099609375,-0.000213623046875

-0.2144775390625,0.12481689453125,0.022003173828125,-0.000457763671875,0.002105712890625,-0.0001220703125
-0.215576171875,0.125213623046875,0.0216064453125,0.00030517578125,0.00146484375,0.0
-0.215118408203125,0.125091552734375,0.02069091796875,0.000457763671875,0.00115966796875,-3.0517578125e-05
-0.21466064453125,0.1260986328125,0.01983642578125,0.000579833984375,0.001068115234375,-9.1552734375e-05
-0.2149658203125,0.12518310546875,0.02008056640625,0.00079345703125,0.000885009765625,-0.0001220703125
-0.21588134765625,0.12469482421875,0.021331787109375,0.000701904296875,0.000885009765625,-0.00018310546875
-0.21661376953125,0.124053955078125,0.02178955078125,0.000640869140625,0.001220703125,-0.000244140625
-0.21710205078125,0.122650146484375,0.02032470703125,0.00030517578125,0.001495361328125,-0.000244140625
-0.21728515625,0.1217041015625,0.019287109375,0.0,0.001800537109375,-0.000152587890625
-0.218658447265625,0.12042236328125,0.02081298828125,0.0001220703125,0.00164794921875,-0.000244140625
-0.218536376953125,0.120330810546875,0.021820068359375,-3.0517578125e-05,0.001678466796875,-0.000244140625
-0.21795654296875,0.120849609375,0.021148681640625,-0.0001220703125,0.001861572265625,-0.000213623046875
-0.21728515625,0.121002197265625,0.020843505859375,-0.000335693359375,0.001922607421875,-0.000152587890625
-0.21875,0.120086669921875,0.02325439453125,-0.000244140625,0.00189208984375,-0.0001220703125
-0.219390869140625,0.119293212890625,0.023895263671875,-0.000274658203125,0.002197265625,-6.103515625e-05
-0.218963623046875,0.1197509765625,0.023590087890625,-0.000335693359375,0.002410888671875,-6.103515625e-05
-0.216644287109375,0.12237548828125,0.02215576171875,-0.000732421875,0.00274658203125,0.0
-0.216400146484375,0.123199462890625,0.022369384765625,-0.001007080078125,0.002899169921875,0.0
-0.216644287109375,0.123016357421875,0.022735595703125,-0.001190185546875,0.003021240234375,-6.103515625e-05
-0.216766357421875,0.12353515625,0.0220947265625,-0.00115966796875,0.003265380859375,-0.00030517578125

-0.21533203125,0.12628173828125,0.021148681640625,-0.002960205078125,0.00555419921875,-0.00048828125
-0.21478271484375,0.126617431640625,0.020721435546875,-0.0029296875,0.005462646484375,-0.000457763671875
-0.21478271484375,0.126861572265625,0.020660400390625,-0.00244140625,0.005035400390625,-0.000579833984375
-0.214141845703125,0.126953125,0.019683837890625,-0.001708984375,0.00433349609375,-0.000701904296875
-0.2142333984375,0.127410888671875,0.020904541015625,-0.001708984375,0.0037841796875,-0.00067138671875
-0.214385986328125,0.12701416015625,0.022216796875,-0.00164794921875,0.003692626953125,-0.000640869140625
-0.2144775390625,0.126495361328125,0.021942138671875,-0.00164794921875,0.003875732421875,-0.000640869140625
-0.214263916015625,0.12652587890625,0.021881103515625,-0.001556396484375,0.003997802734375,-0.000579833984375
-0.213958740234375,0.1263427734375,0.02191162109375,-0.001434326171875,0.00408935546875,-0.000701904296875
-0.214263916015625,0.12664794921875,0.019683837890625,-0.001251220703125,0.00469970703125,-0.00079345703125
-0.213958740234375,0.1265869140625,0.020751953125,-0.001373291015625,0.0045166015625,-0.00067138671875
-0.214263916015625,0.1260986328125,0.02081298828125,-0.001373291015625,0.00439453125,-0.000518798828125
-0.21417236328125,0.126190185546875,0.0196533203125,-0.001251220703125,0.004180908203125,-0.00042724609375
-0.214111328125,0.12652587890625,0.01971435546875,-0.001129150390625,0.003692626953125,-0.000457763671875
-0.214508056640625,0.1268310546875,0.021240234375,-0.0008544921875,0.00341796875,-0.00048828125
-0.2144775390625,0.126556396484375,0.021514892578125,-0.000701904296875,0.003265380859375,-0.000274658203125
-0.21466064453125,0.126495361328125,0.021575927734375,-0.000732421875,0.00323486328125,-0.000396728515625
-0.214813232421875,0.125823974609375,0.02142333984375,-0.00067138671875,0.003448486328125,-0.00042724609375
-0.214508056640625,0.12567138671875,0.021453857421875,-0.00067138671875,0.00335693359375,-0.000518798828125
-0.214508056640625,0.125640869140625,0.022705078125,-0.000579833984375,0.003387451171875,-0.00054931640625

-0.21502685546875,0.126495361328125,0.02349853515625,-0.001220703125,0.00396728515625,-0.0001220703125
-0.2152099609375,0.126129150390625,0.02301025390625,-0.001434326171875,0.003997802734375,-0.000152587890625
-0.214569091796875,0.12548828125,0.023406982421875,-0.001007080078125,0.004150390625,-0.0001220703125
-0.21441650390625,0.124847412109375,0.024658203125,-0.00103759765625,0.003814697265625,-0.000244140625
-0.213958740234375,0.125,0.024566650390625,-0.00128173828125,0.00408935546875,-9.1552734375e-05
-0.213348388671875,0.125946044921875,0.024444580078125,-0.00164794921875,0.004119873046875,-3.0517578125e-05
-0.212890625,0.127593994140625,0.025299072265625,-0.002288818359375,0.004241943359375,0.0003662109375
-0.214080810546875,0.1265869140625,0.025360107421875,-0.00244140625,0.004638671875,0.00030517578125
-0.21429443359375,0.126495361328125,0.023529052734375,-0.002532958984375,0.004974365234375,0.00030517578125
-0.21417236328125,0.126373291015625,0.022705078125,-0.002410888671875,0.005035400390625,0.0003662109375
-0.213043212890625,0.128082275390625,0.02154541015625,-0.00238037109375,0.0050048828125,0.00030517578125
-0.21282958984375,0.12896728515625,0.021270751953125,-0.002227783203125,0.00506591796875,0.000396728515625
-0.21331787109375,0.128662109375,0.021575927734375,-0.001739501953125,0.004638671875,0.000213623046875
-0.214019775390625,0.1280517578125,0.023193359375,-0.0015869140625,0.004364013671875,6.103515625e-05
-0.214324951171875,0.127166748046875,0.024261474609375,-0.00146484375,0.00396728515625,-9.1552734375e-05
-0.214111328125,0.1270751953125,0.024627685546875,-0.00128173828125,0.003631591796875,-6.103515625e-05
-0.213775634765625,0.12738037109375,0.025482177734375,-0.001251220703125,0.003387451171875,-0.0001220703125
-0.2130126953125,0.1279296875,0.0257568359375,-0.001007080078125,0.00347900390625,-0.00018310546875
-0.211944580078125,0.1280517578125,0.025909423828125,-0.001708984375,0.00390625,-3.0517578125e-05
-0.21185302734375,0.128570556640625,0.024688720703125,-0.002227783203125,0.004058837890625,-6.103515625e-05

-0.21234130859375,0.12896728515625,0.0257568359375,-0.001007080078125,0.00323486328125,9.1552734375e-05
-0.212310791015625,0.128631591796875,0.024993896484375,-0.001312255859375,0.00341796875,0.0001220703125
-0.2130126953125,0.128265380859375,0.025054931640625,-0.001708984375,0.00360107421875,0.0001220703125
-0.213592529296875,0.127716064453125,0.02520751953125,-0.001678466796875,0.003631591796875,0.0001220703125
-0.213714599609375,0.1270751953125,0.02569580078125,-0.001800537109375,0.003570556640625,3.0517578125e-05
-0.2139892578125,0.1265869140625,0.025238037109375,-0.001556396484375,0.00384521484375,0.000152587890625
-0.214019775390625,0.126617431640625,0.024383544921875,-0.001312255859375,0.003753662109375,9.1552734375e-05
-0.2130126953125,0.12750244140625,0.023773193359375,-0.001190185546875,0.003509521484375,-6.103515625e-05
-0.21270751953125,0.12811279296875,0.023529052734375,-0.001190185546875,0.003326416015625,-6.103515625e-05
-0.212738037109375,0.127899169921875,0.02410888671875,-0.001068115234375,0.003387451171875,-0.000152587890625
-0.2130126953125,0.12811279296875,0.0242919921875,-0.00103759765625,0.003265380859375,0.0
-0.21343994140625,0.126708984375,0.0252685546875,-0.001251220703125,0.003448486328125,9.1552734375e-05
-0.213104248046875,0.12713623046875,0.025177001953125,-0.001312255859375,0.003326416015625,0.000152587890625
-0.21337890625,0.127197265625,0.025054931640625,-0.0013427734375,0.003387451171875,0.000244140625
-0.212493896484375,0.1275634765625,0.0244140625,-0.001251220703125,0.003265380859375,0.000244140625
-0.212677001953125,0.1275634765625,0.025421142578125,-0.001129150390625,0.003326416015625,0.0003662109375
-0.21282958984375,0.127349853515625,0.026336669921875,-0.0010986328125,0.003326416015625,0.000244140625
-0.213623046875,0.126953125,0.02520751953125,-0.001220703125,0.00347900390625,0.0003662109375
-0.213714599609375,0.12701416015625,0.023834228515625,-0.001251220703125,0.003570556640625,0.000457763671875
-0.21337890625,0.12652587890625,0.02447509765625,-0.001129150390625,0.003326416015625,0.000335693359375

-0.2137451171875,0.126617431640625,0.024810791015625,-0.0013427734375,0.003326416015625,0.000244140625
-0.21405029296875,0.1263427734375,0.024169921875,-0.0013427734375,0.00341796875,0.0001220703125
-0.214263916015625,0.1258544921875,0.02386474609375,-0.001434326171875,0.003448486328125,0.000213623046875
-0.213531494140625,0.126190185546875,0.02294921875,-0.0013427734375,0.00323486328125,0.000274658203125
-0.21295166015625,0.127410888671875,0.023773193359375,-0.0013427734375,0.002960205078125,0.00030517578125
-0.2130126953125,0.127227783203125,0.02398681640625,-0.001434326171875,0.0029296875,0.00030517578125
-0.21380615234375,0.126495361328125,0.023651123046875,-0.001434326171875,0.0032958984375,0.000396728515625
-0.214447021484375,0.12664794921875,0.02349853515625,-0.001373291015625,0.003326416015625,0.0003662109375
-0.214080810546875,0.127227783203125,0.023651123046875,-0.00152587890625,0.003265380859375,0.000396728515625
-0.21380615234375,0.127105712890625,0.0242919921875,-0.001220703125,0.00323486328125,0.000457763671875
-0.2139892578125,0.126129150390625,0.02294921875,-0.001220703125,0.003265380859375,0.0003662109375
-0.213775634765625,0.126190185546875,0.021759033203125,-0.00140380859375,0.00335693359375,0.000396728515625
-0.21380615234375,0.12701416015625,0.023651123046875,-0.001495361328125,0.00335693359375,0.00042724609375
-0.2139892578125,0.126739501953125,0.024658203125,-0.001556396484375,0.003204345703125,0.0003662109375
-0.214599609375,0.12628173828125,0.0247802734375,-0.001373291015625,0.00347900390625,0.0003662109375
-0.21405029296875,0.12664794921875,0.02294921875,-0.00146484375,0.00384521484375,0.00048828125
-0.2135009765625,0.127105712890625,0.022735595703125,-0.001617431640625,0.003662109375,0.000518798828125
-0.213623046875,0.12689208984375,0.023681640625,-0.00164794921875,0.003753662109375,0.000457763671875
-0.214019775390625,0.126861572265625,0.023651123046875,-0.00146484375,0.00341796875,0.000457763671875
-0.214080810546875,0.126922607421875,0.0230712890625,-0.00140380859375,0.003509521484375,0.00048828125

-0.214813232421875,0.12603759765625,0.023834228515625,-0.0015869140625,0.0035400390625,0.000335693359375
-0.21490478515625,0.125823974609375,0.0244140625,-0.00164794921875,0.003662109375,0.00042724609375
-0.214569091796875,0.12548828125,0.024627685546875,-0.0015869140625,0.0037841796875,0.00030517578125
-0.21417236328125,0.1259765625,0.0228271484375,-0.001434326171875,0.003875732421875,0.000335693359375
-0.2138671875,0.126861572265625,0.02301025390625,-0.001373291015625,0.0035400390625,0.000396728515625
-0.214263916015625,0.126556396484375,0.0233154296875,-0.001220703125,0.00341796875,0.0003662109375
-0.214202880859375,0.126312255859375,0.023895263671875,-0.00128173828125,0.00335693359375,0.000457763671875
-0.21405029296875,0.126220703125,0.024139404296875,-0.001373291015625,0.003387451171875,0.00042724609375
-0.214202880859375,0.12640380859375,0.02398681640625,-0.001495361328125,0.00347900390625,0.0003662109375
-0.21478271484375,0.1258544921875,0.02423095703125,-0.0015869140625,0.003509521484375,0.000335693359375
-0.2144775390625,0.1258544921875,0.0240478515625,-0.00146484375,0.00360107421875,0.00030517578125
-0.21417236328125,0.1259765625,0.0235595703125,-0.001373291015625,0.00372314453125,0.000274658203125
-0.21405029296875,0.126068115234375,0.02325439453125,-0.00152587890625,0.003662109375,0.000244140625
-0.21417236328125,0.126190185546875,0.022979736328125,-0.001495361328125,0.00360107421875,0.000335693359375
-0.214324951171875,0.126251220703125,0.023345947265625,-0.001556396484375,0.0035400390625,0.00030517578125
-0.214385986328125,0.126220703125,0.023895263671875,-0.00146484375,0.00323486328125,0.00030517578125
-0.21466064453125,0.126007080078125,0.02392578125,-0.0015869140625,0.0032958984375,0.000274658203125
-0.214813232421875,0.12567138671875,0.023101806640625,-0.00152587890625,0.003326416015625,0.000244140625
-0.214630126953125,0.125457763671875,0.0228271484375,-0.00152587890625,0.003570556640625,0.000335693359375
-0.2147216796875,0.125213623046875,0.022735595703125,-0.001708984375,0.003662109375,0.000244140625

-0.214202880859375,0.1258544921875,0.023040771484375,-0.001708984375,0.003753662109375,0.00030517578125
-0.214752197265625,0.1258544921875,0.022674560546875,-0.0015869140625,0.003692626953125,0.000396728515625
-0.214691162109375,0.125396728515625,0.023468017578125,-0.001434326171875,0.003753662109375,0.000335693359375
-0.214691162109375,0.12542724609375,0.023223876953125,-0.001373291015625,0.003631591796875,0.000274658203125
-0.214691162109375,0.125274658203125,0.02288818359375,-0.001373291015625,0.00347900390625,0.000274658203125
-0.214324951171875,0.125579833984375,0.023193359375,-0.001312255859375,0.003326416015625,0.00030517578125
-0.214141845703125,0.12640380859375,0.022796630859375,-0.00146484375,0.00347900390625,0.00030517578125
-0.21478271484375,0.126373291015625,0.02313232421875,-0.00152587890625,0.0035400390625,0.000274658203125
-0.214691162109375,0.12591552734375,0.0235595703125,-0.00152587890625,0.0035400390625,0.000244140625
-0.214935302734375,0.125579833984375,0.0242919921875,-0.0015869140625,0.003631591796875,0.00030517578125
-0.214813232421875,0.125152587890625,0.023040771484375,-0.001556396484375,0.0037841796875,0.000274658203125
-0.21484375,0.125274658203125,0.022430419921875,-0.0015869140625,0.00384521484375,0.0003662109375
-0.21466064453125,0.125244140625,0.022003173828125,-0.00146484375,0.003875732421875,0.000396728515625
-0.213958740234375,0.126190185546875,0.022735595703125,-0.001251220703125,0.00347900390625,0.000335693359375
-0.2139892578125,0.126495361328125,0.02325439453125,-0.001190185546875,0.00335693359375,0.0003662109375
-0.214111328125,0.126495361328125,0.023834228515625,-0.001251220703125,0.0032958984375,0.0003662109375
-0.21490478515625,0.125030517578125,0.024078369140625,-0.0015869140625,0.00360107421875,0.00030517578125
-0.21478271484375,0.125,0.023162841796875,-0.001556396484375,0.003753662109375,0.0003662109375
-0.21392822265625,0.12579345703125,0.02264404296875,-0.001373291015625,0.003631591796875,0.000244140625
-0.21466064453125,0.1253662109375,0.02484130859375,-0.001617431640625,0.003631591796875,0.000274658203125

-0.215423583984375,0.125,0.02423095703125,-0.001495361328125,0.00323486328125,3.0517578125e-05
-0.215240478515625,0.125,0.024658203125,-0.0015869140625,0.00323486328125,0.00018310546875
-0.215240478515625,0.12451171875,0.02423095703125,-0.00189208984375,0.003631591796875,9.1552734375e-05
-0.21490478515625,0.124664306640625,0.02294921875,-0.00213623046875,0.00408935546875,0.0001220703125
-0.21484375,0.125030517578125,0.022857666015625,-0.002197265625,0.004180908203125,0.000213623046875
-0.21490478515625,0.125213623046875,0.023468017578125,-0.00244140625,0.0042724609375,0.00030517578125
-0.2139892578125,0.1259765625,0.0228271484375,-0.00244140625,0.004486083984375,0.000213623046875
-0.21435546875,0.12567138671875,0.022369384765625,-0.002532958984375,0.00439453125,0.000335693359375
-0.21466064453125,0.12542724609375,0.022430419921875,-0.002471923828125,0.004241943359375,0.000274658203125
-0.215545654296875,0.124725341796875,0.021759033203125,-0.00238037109375,0.00439453125,0.000335693359375
-0.215057373046875,0.124847412109375,0.02239990234375,-0.00225830078125,0.004150390625,0.000335693359375
-0.2152099609375,0.124969482421875,0.02288818359375,-0.002105712890625,0.003997802734375,0.00042724609375
-0.21484375,0.12506103515625,0.022796630859375,-0.0013427734375,0.00372314453125,0.00030517578125
-0.214569091796875,0.125091552734375,0.023193359375,-0.001373291015625,0.003662109375,0.00030517578125
-0.214324951171875,0.125579833984375,0.02337646484375,-0.001495361328125,0.00360107421875,0.000274658203125
-0.214874267578125,0.125701904296875,0.0238037109375,-0.00201416015625,0.0040283203125,0.0003662109375
-0.21514892578125,0.12493896484375,0.024444580078125,-0.0020751953125,0.004180908203125,0.000274658203125
-0.215057373046875,0.124908447265625,0.023529052734375,-0.00213623046875,0.00421142578125,0.00030517578125
-0.214569091796875,0.125579833984375,0.0224609375,-0.001983642578125,0.00421142578125,0.000244140625
-0.2147216796875,0.125396728515625,0.0225830078125,-0.001983642578125,0.0040283203125,0.000213623046875

-0.21502685546875,0.124908447265625,0.02313232421875,-0.00146484375,0.003814697265625,0.000274658203125
-0.214752197265625,0.1251220703125,0.02294921875,-0.001708984375,0.003753662109375,0.000152587890625
-0.214874267578125,0.12481689453125,0.0240478515625,-0.00152587890625,0.003662109375,0.000152587890625
-0.21490478515625,0.124786376953125,0.02374267578125,-0.001312255859375,0.003509521484375,0.0001220703125
-0.2147216796875,0.12493896484375,0.0230712890625,-0.001190185546875,0.003509521484375,0.000213623046875
-0.214141845703125,0.126190185546875,0.02227783203125,-0.0009765625,0.003204345703125,0.000213623046875
-0.214508056640625,0.12603759765625,0.0240478515625,-0.0009765625,0.0030517578125,0.000213623046875
-0.2147216796875,0.125762939453125,0.024505615234375,-0.001068115234375,0.00311279296875,0.000213623046875
-0.21490478515625,0.12554931640625,0.024444580078125,-0.0010986328125,0.003143310546875,0.000213623046875
-0.215179443359375,0.124969482421875,0.0233154296875,-0.0013427734375,0.0032958984375,0.000213623046875
-0.214935302734375,0.124908447265625,0.023590087890625,-0.0013427734375,0.003387451171875,0.000244140625
-0.215179443359375,0.1248779296875,0.023590087890625,-0.0013427734375,0.0032958984375,0.000213623046875
-0.215118408203125,0.12457275390625,0.02252197265625,-0.00115966796875,0.003204345703125,0.00018310546875
-0.21514892578125,0.124755859375,0.02197265625,-0.001129150390625,0.00311279296875,0.000274658203125
-0.215179443359375,0.124847412109375,0.0223388671875,-0.001068115234375,0.002777099609375,0.00018310546875
-0.215850830078125,0.124725341796875,0.023651123046875,-0.0010986328125,0.00274658203125,0.000152587890625
-0.215972900390625,0.124359130859375,0.02435302734375,-0.001220703125,0.00286865234375,0.00018310546875
-0.2156982421875,0.12408447265625,0.0238037109375,-0.001434326171875,0.003143310546875,6.103515625e-05
-0.2156982421875,0.124114990234375,0.023406982421875,-0.00140380859375,0.003448486328125,0.000152587890625
-0.215911865234375,0.123779296875,0.0230712890625,-0.00140380859375,0.0035400390625,0.000213623046875

-0.215118408203125,0.124969482421875,0.022705078125,-0.00152587890625,0.003753662109375,0.000213623046875
-0.214996337890625,0.12506103515625,0.022369384765625,-0.001617431640625,0.0037841796875,0.000244140625
-0.214569091796875,0.125457763671875,0.022735595703125,-0.00177001953125,0.00372314453125,0.000213623046875
